,index,wid,option,choice,rt,correct,trial_number,game,phase,multi_time,multi_dim,n_true_memories,value,remembered_value,n_total_memories_shown,n_total_memories,n_remembered_shown,n_remembered
0,0,w593f4a8,Object,,,0,1,1,choice,After,Object,3,-1,-1.0,2,2,0,1
1,1,w593f4a8,Scene,0.0,1272.0,1,1,2,choice,Before,Scene,3,-3,-1.0,4,4,3,3
2,2,w593f4a8,Green,0.0,4210.0,1,1,3,choice,After,Green,1,-2,1.0,2,2,0,0
3,3,w593f4a8,Red,1.0,1442.0,1,1,4,choice,Before,Red,1,1,1.0,4,4,1,1
4,4,w593f4a8,Animal,,,0,1,5,choice,After,Animal,2,-1,0.0,6,6,2,2
5,5,w593f4a8,Red,1.0,908.0,1,1,6,choice,Before,Red,2,1,1.0,5,5,2,2
6,6,w593f4a8,Blue,1.0,1770.0,1,1,8,choice,Before,Blue,3,1,1.0,4,4,3,3
7,13,w13e388b,Object,,,0,1,1,choice,After,Object,2,-4,-1.0,4,4,1,2
8,14,w13e388b,Yellow,0.0,2255.0,1,1,2,choice,Before,Yellow,3,-2,-4.0,5,5,3,3
9,15,w13e388b,Animal,1.0,4999.0,0,1,3,choice,After,Animal,2,-1,1.0,4,4,2,3
10,16,w13e388b,Red,1.0,1127.0,0,1,4,choice,Before,Red,1,-1,-1.0,4,4,1,2
11,17,w13e388b,Scene,1.0,4942.0,1,1,5,choice,After,Scene,3,1,2.0,4,4,1,2
12,18,w13e388b,Food,1.0,997.0,1,1,6,choice,Before,Food,3,1,2.0,5,5,3,3
13,19,w13e388b,Red,0.0,4608.0,1,1,7,choice,After,Red,1,-2,-2.0,5,5,1,2
14,20,w13e388b,Object,1.0,692.0,1,1,8,choice,Before,Object,2,1,1.0,5,5,2,2
15,27,w479605b,Food,0.0,5016.0,1,1,1,choice,After,Food,1,-2,-2.0,4,4,1,1
16,28,w479605b,Object,,,0,1,2,choice,Before,Object,2,-3,-3.0,5,5,1,1
17,29,w479605b,Object,1.0,2752.0,0,1,3,choice,After,Object,1,-1,1.0,4,4,0,1
18,30,w479605b,Red,1.0,992.0,1,1,4,choice,Before,Red,3,1,3.0,4,4,2,2
19,31,w479605b,Animal,1.0,2808.0,1,1,5,choice,After,Animal,3,2,0.0,4,4,1,1
20,32,w479605b,Red,0.0,1957.0,1,1,6,choice,Before,Red,2,-1,-1.0,4,4,2,2
21,33,w479605b,Scene,1.0,2866.0,1,1,7,choice,After,Scene,2,4,4.0,3,3,1,2
22,34,w479605b,Blue,0.0,1358.0,1,1,8,choice,Before,Blue,3,-2,-5.0,3,3,3,4
23,41,w383e1fe,Food,1.0,3678.0,0,1,1,choice,Before,Food,3,-3,-3.0,5,5,3,3
24,42,w383e1fe,Green,1.0,3747.0,0,1,2,choice,After,Green,2,-1,-1.0,6,6,2,2
25,43,w383e1fe,Object,1.0,1379.0,0,1,3,choice,Before,Object,3,-2,-2.0,6,6,3,3
26,44,w383e1fe,Animal,1.0,2556.0,0,1,4,choice,After,Animal,2,-1,-1.0,6,6,2,2
27,45,w383e1fe,Yellow,1.0,1264.0,1,1,5,choice,Before,Yellow,1,2,2.0,6,6,1,1
28,46,w383e1fe,Red,,,0,1,6,choice,After,Red,3,2,2.0,6,6,3,3
29,47,w383e1fe,Food,1.0,1186.0,1,1,7,choice,Before,Food,2,4,4.0,6,6,2,2
30,48,w383e1fe,Food,0.0,3877.0,1,1,8,choice,After,Food,1,-2,-2.0,6,6,1,1
31,55,wc73f4d8,Object,0.0,5337.0,1,1,1,choice,Before,Object,3,-1,-1.0,4,4,2,3
32,56,wc73f4d8,Green,,,0,1,2,choice,After,Green,1,-2,-2.0,6,6,1,1
33,57,wc73f4d8,Food,1.0,2652.0,0,1,3,choice,Before,Food,3,-3,-3.0,4,4,2,3
34,58,wc73f4d8,Red,0.0,2823.0,1,1,4,choice,After,Red,1,-1,2.0,5,5,1,1
35,59,wc73f4d8,Green,1.0,2330.0,1,1,5,choice,Before,Green,3,3,3.0,4,4,3,3
36,60,wc73f4d8,Scene,0.0,2051.0,1,1,6,choice,After,Scene,3,-1,-2.0,6,6,3,3
37,61,wc73f4d8,Green,0.0,1298.0,1,1,7,choice,Before,Green,3,-1,-3.0,4,4,3,4
38,62,wc73f4d8,Scene,0.0,2006.0,1,1,8,choice,After,Scene,1,-2,-2.0,4,4,1,2
39,69,webf5097,Scene,1.0,3718.0,0,1,1,choice,After,Scene,2,-1,0.0,5,5,2,2
40,70,webf5097,Food,1.0,1913.0,1,1,2,choice,Before,Food,3,2,2.0,5,5,3,3
41,71,webf5097,Animal,0.0,4482.0,1,1,3,choice,After,Animal,2,-3,-3.0,5,5,2,2
42,72,webf5097,Red,1.0,1265.0,1,1,4,choice,Before,Red,3,1,1.0,5,5,3,3
43,73,webf5097,Red,0.0,4735.0,1,1,5,choice,After,Red,2,-2,-2.0,5,5,2,2
44,74,webf5097,Scene,1.0,1516.0,1,1,6,choice,Before,Scene,2,3,3.0,6,6,2,2
45,75,webf5097,Food,1.0,4580.0,1,1,7,choice,After,Food,1,2,2.0,4,4,1,2
46,76,webf5097,Yellow,0.0,1519.0,1,1,8,choice,Before,Yellow,2,-1,-1.0,5,5,1,2
47,83,w68730bb,Object,1.0,3482.0,0,1,1,choice,After,Object,2,-3,1.0,3,3,0,1
48,84,w68730bb,Green,0.0,1637.0,1,1,2,choice,Before,Green,2,-3,4.0,3,3,1,1
49,85,w68730bb,Animal,1.0,2152.0,1,1,4,choice,Before,Animal,2,1,0.0,2,2,1,2
50,86,w68730bb,Yellow,0.0,1577.0,1,1,6,choice,Before,Yellow,2,-2,-3.0,2,2,1,1
51,87,w68730bb,Green,1.0,1282.0,0,1,7,choice,After,Green,2,-1,1.0,1,1,0,0
52,94,we9631be,Yellow,1.0,2558.0,0,1,1,choice,Before,Yellow,1,-2,1.0,2,2,0,1
53,95,we9631be,Food,1.0,665.0,0,1,2,choice,After,Food,1,-1,-1.0,2,2,0,1
54,96,we9631be,Blue,1.0,1501.0,0,1,4,choice,After,Blue,2,-1,4.0,3,3,1,1
55,97,we9631be,Green,,,0,1,5,choice,Before,Green,3,1,4.0,1,1,0,0
56,98,we9631be,Scene,1.0,1335.0,1,1,6,choice,After,Scene,2,1,2.0,1,1,0,1
57,99,we9631be,Animal,1.0,1472.0,1,1,7,choice,Before,Animal,1,2,-1.0,1,1,0,0
58,100,we9631be,Object,1.0,1254.0,1,1,8,choice,After,Object,3,1,2.0,2,2,0,0
59,107,w245142a,Yellow,1.0,3632.0,1,1,1,choice,After,Yellow,3,1,4.0,4,4,1,1
60,108,w245142a,Food,0.0,1941.0,1,1,2,choice,Before,Food,3,-3,-3.0,5,5,3,3
61,109,w245142a,Scene,0.0,5341.0,1,1,3,choice,After,Scene,3,-3,-3.0,4,4,2,2
62,110,w245142a,Green,1.0,2344.0,1,1,4,choice,Before,Green,1,2,2.0,5,5,1,1
63,111,w245142a,Blue,0.0,7481.0,0,1,5,choice,After,Blue,1,2,2.0,6,6,1,1
64,112,w245142a,Green,0.0,901.0,1,1,6,choice,Before,Green,3,-2,-2.0,2,2,2,2
65,113,w245142a,Food,1.0,2015.0,0,1,7,choice,After,Food,1,-1,1.0,3,3,1,1
66,114,w245142a,Object,1.0,376.0,1,1,8,choice,Before,Object,3,2,2.0,5,5,3,3
67,121,w4bf9dec,Yellow,1.0,2515.0,1,1,1,choice,Before,Yellow,1,2,-1.0,2,2,0,0
68,122,w4bf9dec,Green,0.0,2690.0,1,1,2,choice,After,Green,1,-2,-2.0,6,6,1,1
69,123,w4bf9dec,Animal,1.0,3712.0,0,1,3,choice,Before,Animal,2,-1,-2.0,6,6,2,2
70,124,w4bf9dec,Object,1.0,3989.0,1,1,4,choice,After,Object,1,1,1.0,5,5,1,1
71,125,w4bf9dec,Yellow,1.0,1434.0,1,1,5,choice,Before,Yellow,2,3,3.0,6,6,2,2
72,126,w4bf9dec,Green,0.0,2580.0,0,1,6,choice,After,Green,3,3,1.0,5,5,2,2
73,127,w4bf9dec,Animal,1.0,2186.0,0,1,7,choice,Before,Animal,1,-1,-1.0,4,4,1,2
74,128,w4bf9dec,Blue,1.0,5224.0,1,1,8,choice,After,Blue,3,2,2.0,2,2,1,2
75,135,w277fccf,Food,0.0,4625.0,0,1,1,choice,After,Food,3,2,-5.0,2,2,1,1
76,136,w277fccf,Green,1.0,4192.0,0,1,2,choice,Before,Green,2,-3,-3.0,5,5,2,2
77,137,w277fccf,Scene,,,0,1,3,choice,After,Scene,1,1,1.0,5,5,1,2
78,138,w277fccf,Animal,0.0,2866.0,1,1,4,choice,Before,Animal,2,-1,-1.0,5,5,2,2
79,139,w277fccf,Scene,1.0,5163.0,0,1,5,choice,After,Scene,3,-1,-1.0,6,6,3,3
80,140,w277fccf,Yellow,0.0,2546.0,1,1,6,choice,Before,Yellow,2,-1,-1.0,6,6,2,2
81,141,w277fccf,Red,1.0,5637.0,1,1,7,choice,After,Red,1,2,2.0,6,6,1,1
82,142,w277fccf,Red,1.0,1415.0,1,1,8,choice,Before,Red,3,6,6.0,5,5,2,2
83,149,w50c12e5,Object,0.0,6371.0,1,1,1,choice,After,Object,2,-1,0.0,3,3,0,0
84,150,w50c12e5,Yellow,1.0,3501.0,1,1,2,choice,Before,Yellow,3,1,-1.0,5,5,3,3
85,151,w50c12e5,Scene,1.0,5764.0,0,1,3,choice,After,Scene,1,-2,-2.0,4,4,1,1
86,152,w50c12e5,Red,1.0,2183.0,1,1,4,choice,Before,Red,1,1,1.0,3,3,0,1
87,153,w50c12e5,Green,0.0,3379.0,1,1,5,choice,After,Green,3,-1,-1.0,4,4,3,3
88,154,w50c12e5,Scene,1.0,1514.0,1,1,6,choice,Before,Scene,1,2,2.0,3,3,1,1
89,155,w50c12e5,Scene,0.0,2501.0,1,1,7,choice,After,Scene,3,-2,-5.0,2,2,1,2
90,156,w50c12e5,Blue,1.0,1888.0,1,1,8,choice,Before,Blue,2,1,1.0,4,4,2,2
91,177,w8d745f1,Green,1.0,4113.0,1,1,1,choice,After,Green,2,1,-4.0,4,4,1,1
92,178,w8d745f1,Red,1.0,4208.0,0,1,2,choice,Before,Red,3,-2,-2.0,5,5,2,2
93,179,w8d745f1,Scene,1.0,5763.0,1,1,3,choice,After,Scene,1,2,2.0,6,6,1,1
94,180,w8d745f1,Red,0.0,6718.0,1,1,4,choice,Before,Red,1,-1,-1.0,6,6,1,1
95,181,w8d745f1,Green,0.0,4323.0,1,1,5,choice,After,Green,3,-1,-1.0,6,6,3,3
96,182,w8d745f1,Yellow,0.0,4064.0,1,1,6,choice,Before,Yellow,1,-2,-2.0,6,6,1,1
97,183,w8d745f1,Scene,1.0,3173.0,0,1,7,choice,After,Scene,3,-2,-2.0,6,6,3,3
98,184,w8d745f1,Food,1.0,6406.0,1,1,8,choice,Before,Food,1,1,1.0,5,5,1,1
99,205,w02461c5,Red,0.0,4774.0,1,1,1,choice,Before,Red,2,-1,-4.0,5,5,2,2
100,206,w02461c5,Scene,1.0,3562.0,1,1,2,choice,After,Scene,3,3,3.0,5,5,3,3
101,207,w02461c5,Red,1.0,5571.0,1,1,3,choice,Before,Red,2,1,3.0,2,2,0,0
102,208,w02461c5,Animal,0.0,4378.0,1,1,4,choice,After,Animal,3,-1,1.0,4,4,2,2
103,209,w02461c5,Object,0.0,1534.0,1,1,5,choice,Before,Object,3,-1,-2.0,4,4,2,2
104,210,w02461c5,Yellow,0.0,2307.0,0,1,6,choice,After,Yellow,1,2,2.0,3,3,1,1
105,211,w02461c5,Food,,,0,1,8,choice,After,Food,3,2,1.0,1,1,1,1
106,218,wcc15547,Yellow,1.0,2664.0,1,1,1,choice,Before,Yellow,2,1,-3.0,4,4,1,1
107,219,wcc15547,Green,0.0,1503.0,1,1,2,choice,After,Green,2,-1,1.0,1,1,0,1
108,220,wcc15547,Animal,1.0,2317.0,0,1,3,choice,Before,Animal,3,-2,0.0,2,2,1,1
109,221,wcc15547,Object,1.0,2709.0,0,1,4,choice,After,Object,3,-2,3.0,3,3,2,3
110,222,wcc15547,Green,1.0,1877.0,0,1,5,choice,Before,Green,3,-2,1.0,4,4,2,2
111,223,wcc15547,Blue,0.0,1899.0,1,1,6,choice,After,Blue,3,-3,-1.0,1,1,1,2
112,224,wcc15547,Food,0.0,3035.0,1,1,7,choice,Before,Food,1,-2,-1.0,3,3,0,0
113,225,wcc15547,Yellow,0.0,1750.0,0,1,8,choice,After,Yellow,2,4,2.0,2,2,1,2
114,232,w3b16ba3,Yellow,0.0,7061.0,1,1,1,choice,Before,Yellow,3,-5,-4.0,2,2,1,1
115,233,w3b16ba3,Scene,1.0,3821.0,1,1,2,choice,After,Scene,3,3,3.0,4,4,3,3
116,234,w3b16ba3,Scene,1.0,1164.0,1,1,3,choice,Before,Scene,2,4,3.0,5,5,2,2
117,235,w3b16ba3,Animal,0.0,2064.0,0,1,4,choice,After,Animal,3,3,1.0,4,4,2,2
118,236,w3b16ba3,Yellow,1.0,1727.0,1,1,5,choice,Before,Yellow,1,1,1.0,5,5,1,1
119,237,w3b16ba3,Red,1.0,1194.0,1,1,6,choice,After,Red,3,2,2.0,5,5,3,3
120,238,w3b16ba3,Red,0.0,1550.0,1,1,7,choice,Before,Red,1,-2,-2.0,3,3,1,1
121,239,w3b16ba3,Yellow,1.0,3975.0,1,1,8,choice,After,Yellow,2,2,1.0,4,4,1,1
122,258,w08f65eb,Green,0.0,2474.0,0,1,1,choice,After,Green,2,1,1.0,2,2,0,2
123,259,w08f65eb,Food,1.0,1855.0,0,1,2,choice,Before,Food,2,-2,-2.0,6,6,2,2
124,260,w08f65eb,Yellow,1.0,4008.0,0,1,3,choice,After,Yellow,1,-2,2.0,1,1,0,2
125,261,w08f65eb,Red,1.0,3436.0,1,1,4,choice,Before,Red,1,2,2.0,2,2,0,0
126,262,w08f65eb,Yellow,0.0,1848.0,0,1,5,choice,After,Yellow,1,2,-2.0,3,3,1,1
127,263,w08f65eb,Blue,1.0,1479.0,1,1,6,choice,Before,Blue,1,1,2.0,2,2,0,1
128,264,w08f65eb,Food,0.0,1684.0,1,1,7,choice,After,Food,2,-1,1.0,1,1,1,1
129,265,w08f65eb,Food,1.0,1109.0,0,1,8,choice,Before,Food,1,-1,-2.0,4,4,0,1
130,266,w90f4896,Object,1.0,3281.0,1,1,1,choice,After,Object,3,2,2.0,2,2,1,1
131,267,w90f4896,Object,1.0,3790.0,1,1,2,choice,Before,Object,2,3,3.0,5,5,2,3
132,268,w90f4896,Red,,,0,1,3,choice,After,Red,2,2,2.0,5,5,2,3
133,269,w90f4896,Red,0.0,4911.0,0,1,4,choice,Before,Red,1,1,1.0,5,5,0,0
134,270,w90f4896,Scene,1.0,3845.0,0,1,5,choice,After,Scene,1,-2,-2.0,5,5,1,2
135,271,w90f4896,Scene,1.0,1056.0,1,1,6,choice,Before,Scene,2,2,3.0,4,4,2,2
136,272,w90f4896,Yellow,0.0,2580.0,0,1,7,choice,After,Yellow,2,1,3.0,5,5,1,2
137,273,w90f4896,Red,0.0,1414.0,1,1,8,choice,Before,Red,1,-1,-1.0,6,6,1,1
138,280,we2434bb,Red,0.0,3786.0,1,1,1,choice,Before,Red,2,-1,-2.0,4,4,1,1
139,281,we2434bb,Scene,1.0,5706.0,0,1,2,choice,After,Scene,3,-1,-1.0,5,5,3,3
140,282,we2434bb,Scene,0.0,2752.0,1,1,3,choice,Before,Scene,2,-3,-2.0,3,3,2,3
141,283,we2434bb,Blue,1.0,7155.0,1,1,4,choice,After,Blue,2,1,1.0,4,4,2,3
142,284,we2434bb,Food,0.0,1186.0,1,1,5,choice,Before,Food,1,-2,-2.0,5,5,1,1
143,285,we2434bb,Scene,1.0,5071.0,1,1,6,choice,After,Scene,3,3,3.0,6,6,3,3
144,286,we2434bb,Green,1.0,2398.0,1,1,7,choice,Before,Green,3,1,1.0,3,3,3,3
145,287,we2434bb,Red,0.0,2540.0,1,1,8,choice,After,Red,3,-1,-1.0,4,4,3,3
146,294,w05f4989,Yellow,0.0,3220.0,0,1,1,choice,Before,Yellow,2,1,1.0,6,6,2,2
147,295,w05f4989,Yellow,,,0,1,2,choice,After,Yellow,3,2,2.0,6,6,3,3
148,296,w05f4989,Green,1.0,2004.0,1,1,3,choice,Before,Green,1,1,1.0,6,6,1,1
149,297,w05f4989,Animal,1.0,5940.0,0,1,4,choice,After,Animal,2,-1,-1.0,6,6,2,2
150,298,w05f4989,Green,0.0,1162.0,1,1,5,choice,Before,Green,3,-2,-2.0,6,6,3,3
151,299,w05f4989,Scene,1.0,2465.0,1,1,6,choice,After,Scene,1,1,1.0,6,6,1,1
152,300,w05f4989,Green,0.0,1936.0,1,1,7,choice,Before,Green,3,-1,-1.0,5,5,2,3
153,301,w05f4989,Food,1.0,3269.0,1,1,8,choice,After,Food,3,1,1.0,6,6,3,3
154,308,w4ed0320,Yellow,1.0,3009.0,1,1,1,choice,Before,Yellow,1,2,2.0,2,2,0,1
155,309,w4ed0320,Blue,1.0,2484.0,1,1,2,choice,After,Blue,2,1,1.0,5,5,2,2
156,310,w4ed0320,Food,0.0,1739.0,1,1,3,choice,Before,Food,3,-4,-4.0,6,6,3,3
157,311,w4ed0320,Scene,1.0,6635.0,1,1,4,choice,After,Scene,2,1,1.0,6,6,2,2
158,312,w4ed0320,Green,1.0,1085.0,1,1,5,choice,Before,Green,3,3,2.0,4,4,2,2
159,313,w4ed0320,Scene,,,0,1,6,choice,After,Scene,2,-4,1.0,6,6,2,2
160,314,w4ed0320,Scene,0.0,605.0,1,1,7,choice,Before,Scene,3,-5,-3.0,6,6,3,3
161,315,w4ed0320,Blue,1.0,2514.0,1,1,8,choice,After,Blue,3,2,-1.0,2,2,1,1
162,322,w4dce7b5,Food,1.0,2915.0,0,1,1,choice,Before,Food,1,-1,2.0,4,4,1,2
163,323,w4dce7b5,Red,1.0,3200.0,1,1,2,choice,After,Red,1,2,2.0,5,5,1,1
164,324,w4dce7b5,Yellow,1.0,1578.0,1,1,3,choice,Before,Yellow,3,3,-3.0,6,6,3,3
165,325,w4dce7b5,Object,1.0,1726.0,1,1,4,choice,After,Object,3,2,0.0,2,2,2,2
166,326,w4dce7b5,Animal,0.0,1715.0,0,1,6,choice,After,Animal,2,1,1.0,3,3,0,0
167,327,w605fd50,Food,0.0,3026.0,1,1,1,choice,Before,Food,1,-2,-2.0,4,4,1,2
168,328,w605fd50,Scene,0.0,7115.0,1,1,2,choice,After,Scene,3,-1,-1.0,5,5,2,2
169,329,w605fd50,Animal,1.0,4009.0,0,1,3,choice,Before,Animal,1,-1,-1.0,2,2,0,1
170,330,w605fd50,Red,0.0,6503.0,1,1,4,choice,After,Red,1,-2,-2.0,5,5,1,2
171,331,w605fd50,Green,1.0,767.0,1,1,5,choice,Before,Green,3,2,2.0,4,4,3,3
172,332,w605fd50,Food,0.0,5049.0,1,1,6,choice,After,Food,2,-3,-1.0,5,5,2,2
173,333,w605fd50,Scene,0.0,1097.0,1,1,7,choice,Before,Scene,1,-2,-2.0,4,4,1,1
174,334,w605fd50,Green,1.0,2155.0,0,1,8,choice,After,Green,1,-2,1.0,1,1,1,4
175,341,wb772565,Object,0.0,2202.0,1,1,1,choice,Before,Object,2,-2,-2.0,6,6,2,2
176,342,wb772565,Blue,,,0,1,2,choice,After,Blue,1,-1,-2.0,5,5,1,2
177,343,wb772565,Green,1.0,1591.0,1,1,3,choice,Before,Green,2,3,3.0,5,5,1,1
178,344,wb772565,Object,1.0,1783.0,1,1,4,choice,After,Object,3,2,2.0,5,5,3,3
179,345,wb772565,Green,1.0,1005.0,1,1,5,choice,Before,Green,3,4,4.0,6,6,3,3
180,346,wb772565,Food,0.0,3616.0,1,1,6,choice,After,Food,3,-1,0.0,5,5,3,3
181,347,wb772565,Red,0.0,1251.0,1,1,7,choice,Before,Red,1,-1,-1.0,2,2,0,1
182,348,wb772565,Blue,1.0,2364.0,1,1,8,choice,After,Blue,2,3,3.0,3,3,1,2
183,355,w3fdf5b1,Scene,1.0,4928.0,1,1,1,choice,After,Scene,1,2,2.0,2,2,0,1
184,356,w3fdf5b1,Food,1.0,2133.0,1,1,2,choice,Before,Food,2,2,2.0,5,5,2,2
185,357,w3fdf5b1,Green,1.0,5612.0,1,1,3,choice,After,Green,2,1,-1.0,6,6,2,2
186,358,w3fdf5b1,Yellow,1.0,3330.0,0,1,4,choice,Before,Yellow,2,-1,2.0,3,3,1,1
187,359,w3fdf5b1,Blue,1.0,1664.0,0,1,5,choice,After,Blue,2,-1,0.0,6,6,2,2
188,360,w3fdf5b1,Animal,0.0,5036.0,1,1,6,choice,Before,Animal,2,-3,-2.0,5,5,1,1
189,361,w3fdf5b1,Yellow,0.0,3866.0,1,1,7,choice,After,Yellow,3,-2,3.0,5,5,2,3
190,362,w3fdf5b1,Blue,0.0,3178.0,0,1,8,choice,Before,Blue,2,1,1.0,5,5,2,2
191,369,w11538ef,Blue,1.0,3038.0,1,1,1,choice,Before,Blue,3,1,2.0,3,3,1,1
192,370,w11538ef,Food,,,0,1,2,choice,After,Food,1,-1,-1.0,5,5,1,1
193,371,w11538ef,Scene,1.0,2537.0,1,1,3,choice,Before,Scene,1,1,1.0,4,4,1,1
194,372,w11538ef,Animal,1.0,2313.0,1,1,4,choice,After,Animal,3,2,2.0,6,6,3,3
195,373,w11538ef,Animal,1.0,1598.0,1,1,5,choice,Before,Animal,2,2,2.0,5,5,2,3
196,374,w11538ef,Red,0.0,5223.0,1,1,6,choice,After,Red,2,-3,-2.0,6,6,2,2
197,375,w11538ef,Yellow,1.0,2710.0,1,1,7,choice,Before,Yellow,2,3,3.0,5,5,2,2
198,376,w11538ef,Blue,0.0,5705.0,1,1,8,choice,After,Blue,3,-3,1.0,6,6,3,3
199,383,wdab535b,Object,,,0,1,1,choice,Before,Object,2,2,3.0,4,4,0,1
200,384,wdab535b,Animal,0.0,4937.0,0,1,2,choice,After,Animal,1,1,1.0,3,3,1,1
201,385,wdab535b,Yellow,0.0,1302.0,1,1,3,choice,Before,Yellow,1,-2,1.0,3,3,1,1
202,386,wdab535b,Food,1.0,2321.0,0,1,4,choice,After,Food,1,-1,-1.0,2,2,0,0
203,387,wdab535b,Blue,0.0,1430.0,1,1,5,choice,Before,Blue,2,-4,-4.0,3,3,2,2
204,388,wdab535b,Red,1.0,2484.0,0,1,6,choice,After,Red,3,-4,-4.0,1,1,1,1
205,389,wdab535b,Object,0.0,1520.0,0,1,8,choice,After,Object,2,1,3.0,1,1,0,0
206,396,wc294ae3,Green,1.0,5898.0,1,1,1,choice,After,Green,1,1,-1.0,3,3,0,1
207,397,wc294ae3,Green,1.0,2379.0,1,1,2,choice,Before,Green,1,2,-1.0,5,5,1,1
208,398,wc294ae3,Red,0.0,3273.0,1,1,3,choice,After,Red,2,-1,0.0,5,5,2,2
209,399,wc294ae3,Animal,1.0,1302.0,0,1,4,choice,Before,Animal,3,-3,3.0,2,2,1,1
210,400,wc294ae3,Food,1.0,2044.0,0,1,5,choice,After,Food,1,-1,1.0,1,1,0,0
211,401,wc294ae3,Scene,1.0,3893.0,1,1,6,choice,Before,Scene,3,1,2.0,3,3,1,1
212,402,wc294ae3,Green,0.0,4469.0,1,1,7,choice,After,Green,3,-3,4.0,3,3,2,2
213,403,wc294ae3,Food,0.0,1556.0,1,1,8,choice,Before,Food,3,-2,-2.0,3,3,2,2
214,410,w0d62ec5,Blue,0.0,2381.0,1,1,1,choice,Before,Blue,2,-3,-4.0,5,5,2,2
215,411,w0d62ec5,Green,0.0,1648.0,1,1,2,choice,After,Green,3,-1,-1.0,6,6,3,3
216,412,w0d62ec5,Object,1.0,3365.0,1,1,3,choice,Before,Object,1,2,2.0,5,5,1,1
217,413,w0d62ec5,Object,1.0,1032.0,0,1,4,choice,After,Object,2,-4,0.0,2,2,0,0
218,414,w0d62ec5,Object,0.0,1948.0,1,1,5,choice,Before,Object,1,-2,-2.0,4,4,0,0
219,415,w0d62ec5,Food,1.0,1722.0,0,1,6,choice,After,Food,3,-1,4.0,2,2,1,1
220,416,w0d62ec5,Green,0.0,649.0,1,1,7,choice,Before,Green,1,-2,-2.0,5,5,1,1
221,417,w0d62ec5,Blue,0.0,7293.0,0,1,8,choice,After,Blue,3,2,3.0,3,3,2,2
222,424,wb0b75c3,Scene,0.0,2331.0,1,1,1,choice,Before,Scene,2,-1,-1.0,5,5,2,3
223,425,wb0b75c3,Green,0.0,3844.0,1,1,2,choice,After,Green,3,-3,-3.0,6,6,3,3
224,426,wb0b75c3,Red,,,0,1,3,choice,Before,Red,3,-2,1.0,4,4,2,2
225,427,wb0b75c3,Object,1.0,3573.0,0,1,4,choice,After,Object,2,-1,3.0,4,4,2,2
226,428,wb0b75c3,Object,1.0,2943.0,1,1,5,choice,Before,Object,1,1,1.0,5,5,1,1
227,429,wb0b75c3,Yellow,0.0,5138.0,1,1,6,choice,After,Yellow,1,-1,1.0,5,5,1,1
228,430,wb0b75c3,Food,1.0,1760.0,1,1,7,choice,Before,Food,1,2,-2.0,4,4,1,1
229,431,wb0b75c3,Yellow,1.0,1833.0,1,1,8,choice,After,Yellow,2,4,4.0,4,4,2,2
230,438,w4400cbf,Yellow,1.0,1481.0,1,1,1,choice,After,Yellow,3,4,4.0,5,5,2,2
231,439,w4400cbf,Object,0.0,3609.0,1,1,2,choice,Before,Object,1,-2,-2.0,5,5,1,1
232,440,w4400cbf,Scene,0.0,5359.0,0,1,3,choice,After,Scene,2,2,-2.0,6,6,2,2
233,441,w4400cbf,Yellow,0.0,1815.0,1,1,4,choice,Before,Yellow,3,-1,-1.0,5,5,3,3
234,442,w4400cbf,Food,1.0,6764.0,0,1,5,choice,After,Food,1,-2,-2.0,2,2,0,0
235,443,w4400cbf,Blue,1.0,4188.0,0,1,6,choice,Before,Blue,2,-3,-3.0,5,5,2,2
236,444,w4400cbf,Red,0.0,5747.0,1,1,7,choice,After,Red,1,-2,-2.0,5,5,1,1
237,445,w4400cbf,Animal,0.0,4824.0,1,1,8,choice,Before,Animal,2,-3,-3.0,5,5,2,2
238,465,wbc79189,Red,1.0,1567.0,1,1,1,choice,After,Red,2,3,3.0,6,6,2,2
239,466,wbc79189,Food,1.0,2856.0,1,1,2,choice,Before,Food,2,1,1.0,6,6,2,2
240,467,wbc79189,Animal,0.0,5279.0,0,1,3,choice,After,Animal,1,2,1.0,5,5,1,1
241,468,wbc79189,Scene,0.0,1029.0,1,1,4,choice,Before,Scene,2,-1,-1.0,4,4,2,2
242,469,wbc79189,Yellow,0.0,5458.0,1,1,5,choice,After,Yellow,1,-1,-1.0,5,5,1,2
243,470,wbc79189,Food,1.0,814.0,1,1,6,choice,Before,Food,2,1,1.0,5,5,2,2
244,471,wbc79189,Red,0.0,2147.0,1,1,7,choice,After,Red,1,-2,-2.0,5,5,1,1
245,472,wbc79189,Scene,0.0,1265.0,1,1,8,choice,Before,Scene,1,-2,-2.0,6,6,1,1
246,479,w6bec3e7,Blue,1.0,4338.0,1,1,1,choice,After,Blue,2,3,3.0,5,5,2,2
247,480,w6bec3e7,Scene,0.0,7361.0,1,1,2,choice,Before,Scene,1,-1,-1.0,5,5,1,1
248,481,w6bec3e7,Red,,,0,1,3,choice,After,Red,3,2,2.0,6,6,3,3
249,482,w6bec3e7,Animal,1.0,1137.0,1,1,4,choice,Before,Animal,1,2,2.0,2,2,1,1
250,483,w6bec3e7,Scene,1.0,3672.0,0,1,5,choice,After,Scene,2,-1,1.0,5,5,2,2
251,484,w6bec3e7,Food,0.0,772.0,1,1,6,choice,Before,Food,3,-2,-2.0,4,4,3,3
252,485,w6bec3e7,Green,1.0,4476.0,0,1,7,choice,After,Green,1,-2,-1.0,4,4,1,2
253,486,w6bec3e7,Yellow,1.0,1018.0,1,1,8,choice,Before,Yellow,2,3,3.0,3,3,2,2
254,493,w6ea0c26,Blue,1.0,5935.0,1,1,1,choice,Before,Blue,2,1,-1.0,4,4,1,2
255,494,w6ea0c26,Object,0.0,4081.0,1,1,2,choice,After,Object,2,-1,-1.0,3,3,1,1
256,495,w6ea0c26,Red,1.0,995.0,1,1,3,choice,Before,Red,3,2,1.0,5,5,2,3
257,496,w6ea0c26,Green,0.0,4864.0,0,1,4,choice,After,Green,1,1,2.0,5,5,0,0
258,497,w6ea0c26,Scene,1.0,4568.0,0,1,5,choice,Before,Scene,2,-1,-3.0,6,6,1,1
259,498,w6ea0c26,Scene,0.0,3222.0,0,1,6,choice,After,Scene,2,1,0.0,3,3,1,1
260,499,w6ea0c26,Scene,0.0,1264.0,1,1,7,choice,Before,Scene,2,-1,0.0,4,4,2,3
261,500,w6ea0c26,Red,1.0,1227.0,0,1,8,choice,After,Red,1,-1,-2.0,3,3,0,0
262,507,w924a500,Scene,,,0,1,1,choice,Before,Scene,1,1,1.0,6,6,1,1
263,508,w924a500,Green,0.0,4010.0,1,1,2,choice,After,Green,2,-2,-2.0,5,5,2,3
264,509,w924a500,Scene,1.0,3547.0,0,1,3,choice,Before,Scene,1,-1,-2.0,4,4,1,3
265,510,w924a500,Food,1.0,3658.0,1,1,4,choice,After,Food,1,2,2.0,6,6,1,1
266,511,w924a500,Animal,0.0,6181.0,1,1,5,choice,Before,Animal,2,-1,0.0,6,6,2,2
267,512,w924a500,Yellow,0.0,5205.0,0,1,6,choice,After,Yellow,2,1,-2.0,6,6,2,2
268,513,w924a500,Yellow,1.0,1566.0,1,1,7,choice,Before,Yellow,3,1,1.0,4,4,2,2
269,514,w924a500,Object,1.0,4996.0,0,1,8,choice,After,Object,2,-3,-3.0,6,6,2,2
270,521,w10f7bc5,Green,1.0,2735.0,0,1,1,choice,After,Green,1,-1,1.0,4,4,1,2
271,522,w10f7bc5,Red,1.0,1710.0,1,1,4,choice,Before,Red,1,2,2.0,3,3,1,1
272,523,w10f7bc5,Animal,0.0,3612.0,0,1,5,choice,After,Animal,2,1,1.0,3,3,0,0
273,524,w10f7bc5,Food,1.0,1194.0,1,1,6,choice,Before,Food,2,4,4.0,1,1,0,0
274,525,w10f7bc5,Object,0.0,2133.0,1,1,7,choice,After,Object,3,-1,-1.0,3,3,2,2
275,526,w10f7bc5,Food,1.0,1120.0,1,1,8,choice,Before,Food,3,2,2.0,3,3,3,3
276,533,w2c75db7,Blue,0.0,2380.0,1,1,1,choice,After,Blue,3,-2,-4.0,6,6,3,3
277,534,w2c75db7,Food,0.0,2736.0,1,1,2,choice,Before,Food,2,-3,-3.0,4,4,1,2
278,535,w2c75db7,Green,1.0,5947.0,1,1,3,choice,After,Green,2,3,2.0,3,3,1,2
279,536,w2c75db7,Food,0.0,1442.0,1,1,4,choice,Before,Food,1,-1,-1.0,3,3,1,1
280,537,w2c75db7,Green,0.0,3924.0,1,1,5,choice,After,Green,3,-1,-1.0,4,4,2,2
281,538,w2c75db7,Scene,0.0,1876.0,1,1,6,choice,Before,Scene,1,-1,-1.0,3,3,1,1
282,539,w2c75db7,Scene,0.0,6039.0,0,1,7,choice,After,Scene,3,2,-2.0,5,5,2,2
283,540,w2c75db7,Animal,1.0,1761.0,1,1,8,choice,Before,Animal,3,1,1.0,5,5,3,3
284,547,w2c1f2f7,Yellow,0.0,2520.0,1,1,1,choice,Before,Yellow,1,-2,1.0,3,3,0,0
285,548,w2c1f2f7,Food,1.0,2205.0,1,1,2,choice,After,Food,1,1,2.0,3,3,1,2
286,549,w2c1f2f7,Red,1.0,1966.0,1,1,3,choice,Before,Red,2,1,2.0,3,3,2,3
287,550,w2c1f2f7,Red,0.0,2373.0,1,1,4,choice,After,Red,1,-1,-1.0,4,4,1,1
288,551,w2c1f2f7,Animal,1.0,1073.0,0,1,5,choice,Before,Animal,2,-3,-1.0,4,4,2,3
289,552,w2c1f2f7,Object,0.0,2552.0,1,1,6,choice,After,Object,1,-2,2.0,5,5,1,1
290,553,w2c1f2f7,Animal,1.0,1569.0,1,1,7,choice,Before,Animal,1,2,2.0,5,5,1,1
291,554,w2c1f2f7,Red,,,0,1,8,choice,After,Red,1,-1,-1.0,5,5,1,1
292,561,wace8728,Scene,1.0,4010.0,1,1,1,choice,Before,Scene,1,2,0.0,1,1,0,0
293,562,wace8728,Yellow,0.0,2098.0,1,1,2,choice,After,Yellow,3,-1,0.0,5,5,3,3
294,563,wace8728,Green,0.0,936.0,1,1,3,choice,Before,Green,2,-2,0.0,2,2,1,2
295,564,wace8728,Animal,1.0,4596.0,1,1,4,choice,After,Animal,2,4,0.0,3,3,1,1
296,565,wace8728,Scene,0.0,2111.0,1,1,5,choice,Before,Scene,3,-2,0.0,1,1,1,1
297,566,wace8728,Red,1.0,2584.0,1,1,6,choice,After,Red,3,3,0.0,2,2,2,2
298,567,wace8728,Object,0.0,4722.0,0,1,7,choice,Before,Object,1,1,0.0,5,5,1,1
299,568,wace8728,Blue,1.0,4410.0,0,1,8,choice,After,Blue,2,-1,0.0,3,3,1,2
300,575,wd07cb72,Green,1.0,1821.0,1,1,1,choice,Before,Green,1,2,2.0,5,5,1,1
301,576,wd07cb72,Object,,,0,1,2,choice,After,Object,1,-2,-1.0,6,6,1,1
302,577,wd07cb72,Scene,0.0,744.0,1,1,3,choice,Before,Scene,2,-1,-3.0,5,5,2,2
303,578,wd07cb72,Object,,,0,1,4,choice,After,Object,1,2,2.0,4,4,1,1
304,579,wd07cb72,Green,0.0,499.0,1,1,5,choice,Before,Green,3,-3,-3.0,4,4,2,2
305,580,wd07cb72,Red,0.0,2508.0,1,1,6,choice,After,Red,3,-2,-2.0,6,6,3,3
306,581,wd07cb72,Scene,0.0,2167.0,1,1,7,choice,Before,Scene,1,-2,-2.0,5,5,1,2
307,582,wd07cb72,Yellow,1.0,1591.0,1,1,8,choice,After,Yellow,2,2,2.0,4,4,1,1
308,589,w0fd8c2c,Food,,,0,1,1,choice,After,Food,3,-2,-2.0,5,5,3,3
309,590,w0fd8c2c,Green,1.0,2793.0,1,1,2,choice,Before,Green,2,1,1.0,4,4,2,2
310,591,w0fd8c2c,Animal,0.0,4021.0,1,1,3,choice,After,Animal,2,-4,-4.0,3,3,1,1
311,592,w0fd8c2c,Blue,0.0,2661.0,1,1,4,choice,Before,Blue,3,-1,-1.0,6,6,3,3
312,593,w0fd8c2c,Yellow,,,0,1,5,choice,After,Yellow,1,1,1.0,3,3,0,1
313,594,w0fd8c2c,Scene,1.0,3128.0,1,1,6,choice,Before,Scene,1,2,2.0,3,3,1,1
314,595,w0fd8c2c,Yellow,,,0,1,7,choice,After,Yellow,3,-2,-2.0,3,3,1,2
315,596,w0fd8c2c,Red,1.0,2106.0,0,1,8,choice,Before,Red,3,-1,-1.0,1,1,1,1
316,603,w117e095,Red,1.0,2052.0,1,1,1,choice,Before,Red,2,1,4.0,5,5,2,2
317,604,w117e095,Blue,1.0,1494.0,0,1,2,choice,After,Blue,3,-2,-3.0,4,4,2,2
318,605,w117e095,Blue,0.0,2214.0,1,1,3,choice,Before,Blue,1,-2,-2.0,3,3,1,1
319,606,w117e095,Blue,1.0,5665.0,1,1,4,choice,After,Blue,2,3,1.0,2,2,1,2
320,607,w117e095,Animal,0.0,3321.0,1,1,5,choice,Before,Animal,2,-1,-1.0,4,4,2,3
321,608,w117e095,Object,1.0,2538.0,0,1,6,choice,After,Object,1,-1,1.0,2,2,0,2
322,609,w117e095,Animal,1.0,823.0,0,1,7,choice,Before,Animal,2,-1,0.0,2,2,1,1
323,635,w5f68d79,Food,1.0,2856.0,1,1,1,choice,Before,Food,1,2,2.0,1,1,1,1
324,636,w5f68d79,Food,0.0,4555.0,1,1,2,choice,After,Food,2,-2,-1.0,3,3,1,1
325,637,w5f68d79,Red,0.0,1768.0,1,1,3,choice,Before,Red,2,-3,-3.0,4,4,2,3
326,638,w5f68d79,Red,0.0,5896.0,1,1,4,choice,After,Red,1,-1,-2.0,3,3,1,2
327,639,w5f68d79,Scene,1.0,2056.0,1,1,7,choice,Before,Scene,1,2,2.0,1,1,1,2
328,640,w5f68d79,Green,1.0,6877.0,1,1,8,choice,After,Green,1,2,2.0,1,1,0,0
329,641,we58a710,Blue,0.0,2885.0,0,1,1,choice,After,Blue,2,1,1.0,6,6,2,2
330,642,we58a710,Scene,0.0,2179.0,1,1,2,choice,Before,Scene,1,-2,-2.0,5,5,1,1
331,643,we58a710,Object,,,0,1,3,choice,After,Object,1,-2,-2.0,6,6,1,1
332,644,we58a710,Yellow,0.0,1000.0,1,1,4,choice,Before,Yellow,2,-2,-2.0,6,6,2,2
333,645,we58a710,Animal,1.0,5218.0,1,1,5,choice,After,Animal,3,2,2.0,6,6,3,3
334,646,we58a710,Animal,0.0,696.0,1,1,6,choice,Before,Animal,1,-1,-1.0,6,6,1,1
335,647,we58a710,Blue,1.0,1888.0,0,1,7,choice,After,Blue,3,-1,-1.0,6,6,3,3
336,648,we58a710,Food,1.0,929.0,1,1,8,choice,Before,Food,1,2,2.0,6,6,1,1
337,655,w53b40c8,Red,1.0,5572.0,1,1,1,choice,After,Red,1,1,0.0,3,3,0,1
338,656,w53b40c8,Scene,1.0,2705.0,1,1,2,choice,Before,Scene,2,1,0.0,4,4,2,3
339,657,w53b40c8,Object,1.0,1464.0,1,1,3,choice,After,Object,2,1,0.0,5,5,2,2
340,658,w53b40c8,Green,1.0,837.0,1,1,4,choice,Before,Green,2,1,0.0,5,5,2,2
341,659,w53b40c8,Yellow,0.0,1535.0,0,1,5,choice,After,Yellow,1,1,0.0,5,5,1,1
342,660,w53b40c8,Red,0.0,885.0,1,1,6,choice,Before,Red,2,-3,0.0,6,6,2,2
343,661,w53b40c8,Food,1.0,1169.0,0,1,7,choice,After,Food,1,-2,0.0,4,4,0,0
344,662,w53b40c8,Blue,0.0,950.0,1,1,8,choice,Before,Blue,1,-1,0.0,6,6,1,1
345,669,wc0a4260,Green,1.0,2734.0,0,1,1,choice,After,Green,2,-2,-2.0,3,3,1,2
346,670,wc0a4260,Red,0.0,5238.0,1,1,2,choice,Before,Red,3,-1,-2.0,2,2,1,1
347,671,wc0a4260,Green,1.0,1119.0,0,1,3,choice,After,Green,1,-2,1.0,1,1,0,1
348,672,wc0a4260,Animal,0.0,2868.0,1,1,4,choice,Before,Animal,3,-4,0.0,3,3,1,2
349,673,wc0a4260,Animal,1.0,1245.0,1,1,5,choice,After,Animal,2,1,0.0,3,3,1,1
350,674,wc0a4260,Food,0.0,3410.0,0,1,6,choice,Before,Food,3,2,2.0,3,3,0,0
351,675,wc0a4260,Blue,1.0,1578.0,1,1,8,choice,Before,Blue,3,2,1.0,3,3,1,1
352,682,wf646ea3,Animal,1.0,3581.0,1,1,1,choice,Before,Animal,2,1,1.0,3,3,1,1
353,683,wf646ea3,Green,0.0,3291.0,1,1,2,choice,After,Green,2,-1,4.0,4,4,1,1
354,684,wf646ea3,Food,0.0,1529.0,0,1,3,choice,Before,Food,1,2,1.0,3,3,0,0
355,685,wf646ea3,Object,0.0,885.0,1,1,4,choice,After,Object,3,-3,2.0,2,2,1,1
356,686,wf646ea3,Object,1.0,3001.0,0,1,5,choice,Before,Object,3,-2,2.0,1,1,0,0
357,687,wf646ea3,Green,0.0,239.0,0,1,6,choice,After,Green,1,2,2.0,2,2,1,2
358,688,wf646ea3,Blue,1.0,2082.0,1,1,7,choice,Before,Blue,2,3,-2.0,2,2,1,1
359,689,wf646ea3,Yellow,1.0,397.0,1,1,8,choice,After,Yellow,2,1,-2.0,3,3,1,1
360,698,w6dd030e,Yellow,,,0,1,1,choice,After,Yellow,3,-1,-4.0,5,5,2,2
361,699,w6dd030e,Object,1.0,4915.0,1,1,2,choice,Before,Object,1,1,1.0,5,5,1,1
362,700,w6dd030e,Scene,1.0,4506.0,1,1,3,choice,After,Scene,2,4,3.0,5,5,2,2
363,701,w6dd030e,Scene,,,0,1,4,choice,Before,Scene,2,2,2.0,3,3,2,2
364,702,w6dd030e,Yellow,1.0,3077.0,1,1,5,choice,After,Yellow,1,2,-1.0,5,5,1,1
365,703,w6dd030e,Blue,1.0,4495.0,0,1,6,choice,Before,Blue,2,-4,-4.0,4,4,2,2
366,704,w6dd030e,Animal,1.0,4860.0,1,1,7,choice,After,Animal,2,2,3.0,2,2,1,1
367,705,w6dd030e,Red,0.0,6261.0,0,1,8,choice,Before,Red,3,3,4.0,1,1,1,2
368,712,wf2f2835,Yellow,0.0,2015.0,1,1,1,choice,Before,Yellow,2,-3,-3.0,4,4,1,1
369,713,wf2f2835,Yellow,1.0,5137.0,1,1,2,choice,After,Yellow,3,1,4.0,4,4,2,3
370,714,wf2f2835,Green,0.0,3705.0,0,1,3,choice,Before,Green,1,1,1.0,3,3,0,1
371,715,wf2f2835,Red,1.0,3279.0,1,1,4,choice,After,Red,3,1,2.0,5,5,3,3
372,716,wf2f2835,Animal,0.0,3228.0,1,1,5,choice,Before,Animal,1,-1,-1.0,3,3,1,1
373,717,wf2f2835,Food,1.0,4189.0,1,1,6,choice,After,Food,3,3,5.0,2,2,1,1
374,718,wf2f2835,Scene,1.0,1585.0,1,1,7,choice,Before,Scene,3,2,2.0,4,4,2,2
375,719,wf2f2835,Red,1.0,3169.0,0,1,8,choice,After,Red,3,-2,2.0,2,2,1,1
376,720,wd0724cf,Object,0.0,6881.0,1,1,1,choice,After,Object,2,-4,0.0,4,4,1,1
377,721,wd0724cf,Blue,0.0,5102.0,1,1,2,choice,Before,Blue,1,-1,-1.0,5,5,1,2
378,722,wd0724cf,Object,,,0,1,3,choice,After,Object,3,2,2.0,6,6,3,3
379,723,wd0724cf,Food,0.0,1319.0,0,1,4,choice,Before,Food,1,1,-1.0,4,4,1,1
380,724,wd0724cf,Green,0.0,2937.0,1,1,5,choice,After,Green,3,-1,-1.0,6,6,3,3
381,725,wd0724cf,Blue,0.0,2306.0,1,1,6,choice,Before,Blue,1,-1,-1.0,6,6,1,1
382,726,wd0724cf,Food,1.0,2721.0,0,1,7,choice,After,Food,2,-1,-1.0,5,5,1,1
383,727,wd0724cf,Blue,1.0,2291.0,1,1,8,choice,Before,Blue,2,4,4.0,5,5,1,2
384,734,w29ed098,Scene,,,0,1,1,choice,After,Scene,2,-3,0.0,6,6,2,2
385,735,w29ed098,Scene,0.0,1712.0,1,1,2,choice,Before,Scene,1,-2,-2.0,5,5,1,1
386,736,w29ed098,Animal,1.0,5267.0,0,1,3,choice,After,Animal,2,-3,1.0,4,4,1,1
387,737,w29ed098,Yellow,1.0,2500.0,1,1,4,choice,Before,Yellow,2,1,1.0,4,4,2,3
388,738,w29ed098,Scene,1.0,5946.0,0,1,5,choice,After,Scene,2,-1,1.0,3,3,1,1
389,739,w29ed098,Food,0.0,947.0,1,1,6,choice,Before,Food,3,-1,-2.0,5,5,3,3
390,740,w29ed098,Yellow,1.0,2223.0,1,1,7,choice,After,Yellow,2,3,-3.0,4,4,0,0
391,741,w29ed098,Yellow,0.0,545.0,1,1,8,choice,Before,Yellow,2,-1,-1.0,5,5,2,2
392,748,w3327d2a,Yellow,0.0,4634.0,1,1,1,choice,After,Yellow,3,-2,5.0,5,5,3,3
393,749,w3327d2a,Red,0.0,906.0,1,1,2,choice,Before,Red,1,-1,-1.0,4,4,1,2
394,750,w3327d2a,Animal,1.0,2306.0,1,1,3,choice,After,Animal,2,3,3.0,5,5,2,2
395,751,w3327d2a,Yellow,0.0,1909.0,0,1,4,choice,Before,Yellow,2,1,4.0,3,3,1,2
396,752,w3327d2a,Scene,0.0,3850.0,1,1,5,choice,After,Scene,2,-2,-2.0,4,4,2,2
397,753,w3327d2a,Red,0.0,1315.0,1,1,6,choice,Before,Red,2,-3,-3.0,5,5,2,3
398,754,w3327d2a,Green,0.0,5672.0,1,1,7,choice,After,Green,1,-1,-1.0,3,3,1,1
399,755,w3327d2a,Object,0.0,2613.0,1,1,8,choice,Before,Object,3,-2,-2.0,1,1,1,1
400,762,w5685230,Animal,0.0,4689.0,1,1,1,choice,Before,Animal,2,-1,-1.0,5,5,2,2
401,763,w5685230,Object,0.0,6447.0,1,1,2,choice,After,Object,1,-2,-2.0,6,6,1,1
402,764,w5685230,Blue,1.0,2285.0,1,1,3,choice,Before,Blue,2,3,3.0,5,5,2,2
403,765,w5685230,Animal,1.0,6581.0,1,1,4,choice,After,Animal,2,1,-1.0,3,3,1,3
404,766,w5685230,Yellow,0.0,1073.0,1,1,5,choice,Before,Yellow,1,-1,-1.0,6,6,1,1
405,767,w5685230,Scene,1.0,6608.0,1,1,6,choice,After,Scene,1,2,2.0,6,6,1,1
406,768,w5685230,Green,0.0,646.0,1,1,7,choice,Before,Green,3,-2,0.0,6,6,3,3
407,769,w5685230,Blue,0.0,2913.0,0,1,8,choice,After,Blue,1,1,1.0,4,4,1,1
408,776,w30e05e4,Blue,0.0,5481.0,0,1,1,choice,After,Blue,3,2,-1.0,5,5,3,3
409,777,w30e05e4,Scene,1.0,4217.0,0,1,2,choice,Before,Scene,2,-1,0.0,5,5,2,2
410,778,w30e05e4,Food,,,0,1,3,choice,After,Food,1,-2,2.0,6,6,1,1
411,779,w30e05e4,Green,1.0,896.0,1,1,4,choice,Before,Green,2,4,4.0,5,5,2,2
412,780,w30e05e4,Yellow,1.0,3889.0,1,1,5,choice,After,Yellow,1,1,2.0,4,4,1,2
413,781,w30e05e4,Red,1.0,1945.0,1,1,6,choice,Before,Red,2,4,4.0,6,6,2,2
414,782,w30e05e4,Scene,1.0,5438.0,0,1,7,choice,After,Scene,3,-1,-1.0,5,5,2,2
415,783,w30e05e4,Yellow,1.0,712.0,1,1,8,choice,Before,Yellow,2,1,1.0,4,4,2,2
416,791,wbe9243a,Blue,,,0,1,1,choice,After,Blue,3,2,-2.0,2,2,1,1
417,792,wbe9243a,Object,1.0,2975.0,1,1,2,choice,Before,Object,2,1,1.0,5,5,2,3
418,793,wbe9243a,Green,1.0,3124.0,1,1,3,choice,After,Green,1,2,-2.0,3,3,1,2
419,794,wbe9243a,Animal,1.0,872.0,1,1,4,choice,Before,Animal,3,2,0.0,4,4,2,2
420,795,wbe9243a,Green,0.0,2813.0,1,1,5,choice,After,Green,3,-1,-5.0,3,3,1,1
421,796,wbe9243a,Food,1.0,1930.0,0,1,6,choice,Before,Food,3,-1,-4.0,5,5,3,3
422,797,wbe9243a,Animal,,,0,1,7,choice,After,Animal,1,1,1.0,6,6,1,1
423,798,wbe9243a,Object,0.0,4446.0,0,1,8,choice,Before,Object,3,1,1.0,6,6,3,3
424,805,w0b0ec85,Object,0.0,6317.0,0,1,1,choice,After,Object,2,1,1.0,4,4,2,2
425,806,w0b0ec85,Green,1.0,1932.0,1,1,2,choice,Before,Green,2,4,3.0,4,4,1,1
426,807,w0b0ec85,Yellow,0.0,2246.0,1,1,4,choice,Before,Yellow,2,-2,-3.0,2,2,2,2
427,808,w0b0ec85,Animal,,,0,1,5,choice,After,Animal,2,-1,-3.0,2,2,0,0
428,809,w0b0ec85,Scene,1.0,2533.0,1,1,7,choice,After,Scene,3,2,1.0,1,1,1,1
429,810,w0ef0b67,Animal,1.0,1626.0,0,1,1,choice,After,Animal,2,-1,-2.0,5,5,2,2
430,811,w0ef0b67,Scene,0.0,3062.0,0,1,2,choice,Before,Scene,2,1,-2.0,3,3,2,2
431,812,w0ef0b67,Yellow,1.0,1797.0,0,1,3,choice,After,Yellow,3,-2,-3.0,4,4,3,3
432,813,w0ef0b67,Blue,1.0,2100.0,1,1,4,choice,Before,Blue,1,2,2.0,2,2,1,1
433,814,w0ef0b67,Scene,0.0,5048.0,1,1,5,choice,After,Scene,2,-1,-2.0,1,1,1,1
434,815,w0ef0b67,Red,1.0,1391.0,0,1,6,choice,Before,Red,2,-3,1.0,2,2,0,0
435,822,wea8ef8e,Animal,1.0,2458.0,1,1,1,choice,Before,Animal,2,2,0.0,2,2,1,1
436,823,wea8ef8e,Food,1.0,4405.0,1,1,2,choice,After,Food,2,1,-2.0,3,3,1,1
437,824,wea8ef8e,Food,0.0,2413.0,0,1,3,choice,Before,Food,3,1,1.0,2,2,1,2
438,825,wea8ef8e,Object,1.0,4193.0,0,1,4,choice,After,Object,1,-2,-2.0,3,3,1,1
439,826,wea8ef8e,Yellow,0.0,3015.0,1,1,5,choice,Before,Yellow,1,-2,-2.0,4,4,1,2
440,827,wea8ef8e,Object,1.0,1513.0,0,1,6,choice,After,Object,1,-1,1.0,3,3,0,1
441,828,wea8ef8e,Green,1.0,3056.0,0,1,7,choice,Before,Green,3,-2,-3.0,3,3,1,1
442,829,wea8ef8e,Red,1.0,7147.0,0,1,8,choice,After,Red,3,-3,-4.0,5,5,3,3
443,841,we38f335,Animal,0.0,3643.0,0,1,1,choice,Before,Animal,2,3,-1.0,4,4,1,1
444,842,we38f335,Scene,1.0,1966.0,1,1,2,choice,After,Scene,2,1,-3.0,4,4,1,2
445,843,we38f335,Yellow,1.0,3191.0,1,1,3,choice,Before,Yellow,3,2,2.0,6,6,3,3
446,844,we38f335,Blue,,,0,1,4,choice,After,Blue,1,1,-1.0,4,4,1,3
447,845,we38f335,Object,1.0,4025.0,0,1,5,choice,Before,Object,3,-1,-1.0,6,6,3,3
448,846,we38f335,Food,1.0,1198.0,0,1,6,choice,After,Food,3,-2,-2.0,6,6,3,3
449,847,we38f335,Object,1.0,1653.0,1,1,7,choice,Before,Object,2,1,-1.0,5,5,2,2
450,848,we38f335,Blue,0.0,2386.0,1,1,8,choice,After,Blue,1,-1,-2.0,6,6,1,1
451,855,wc6f0e84,Animal,0.0,2714.0,1,1,1,choice,Before,Animal,3,-1,-1.0,5,5,2,2
452,856,wc6f0e84,Blue,1.0,2030.0,0,1,2,choice,After,Blue,2,-1,-1.0,4,4,2,2
453,857,wc6f0e84,Scene,0.0,1615.0,1,1,3,choice,Before,Scene,3,-3,-3.0,5,5,2,2
454,858,wc6f0e84,Red,0.0,3438.0,1,1,4,choice,After,Red,3,-1,-2.0,3,3,2,2
455,859,wc6f0e84,Object,0.0,1515.0,1,1,5,choice,Before,Object,1,-2,-2.0,3,3,1,2
456,860,wc6f0e84,Yellow,1.0,2294.0,1,1,6,choice,After,Yellow,1,2,1.0,5,5,0,0
457,861,wc6f0e84,Scene,0.0,3695.0,1,1,7,choice,Before,Scene,2,-1,-1.0,5,5,2,2
458,862,wc6f0e84,Yellow,1.0,3867.0,1,1,8,choice,After,Yellow,2,4,4.0,4,4,2,2
459,869,wab226bf,Animal,0.0,6616.0,0,1,1,choice,After,Animal,3,3,-1.0,2,2,1,2
460,870,wab226bf,Green,0.0,5402.0,0,1,2,choice,Before,Green,3,2,2.0,2,2,1,2
461,871,wab226bf,Object,1.0,3055.0,1,1,3,choice,After,Object,1,2,1.0,4,4,0,0
462,872,wab226bf,Animal,,,0,1,4,choice,Before,Animal,1,-1,-1.0,4,4,1,1
463,873,wab226bf,Red,0.0,2952.0,0,1,5,choice,After,Red,2,1,-2.0,3,3,2,3
464,874,wab226bf,Red,0.0,1757.0,1,1,6,choice,Before,Red,2,-3,-3.0,6,6,2,2
465,875,wab226bf,Green,1.0,2845.0,0,1,7,choice,After,Green,1,-2,-2.0,3,3,0,1
466,876,wab226bf,Animal,0.0,848.0,1,1,8,choice,Before,Animal,2,-1,-1.0,4,4,2,3
467,883,w2a7296e,Food,1.0,3129.0,1,1,1,choice,After,Food,1,2,2.0,4,4,1,1
468,884,w2a7296e,Yellow,0.0,1935.0,0,1,3,choice,After,Yellow,2,2,1.0,1,1,1,1
469,885,w2a7296e,Animal,1.0,899.0,1,1,4,choice,Before,Animal,1,2,1.0,2,2,0,2
470,886,w2a7296e,Green,1.0,2588.0,1,1,5,choice,After,Green,3,4,1.0,2,2,2,2
471,887,w2a7296e,Yellow,0.0,2361.0,0,1,6,choice,Before,Yellow,1,1,2.0,4,4,1,2
472,888,w2a7296e,Green,1.0,2575.0,1,1,7,choice,After,Green,1,1,1.0,4,4,1,2
473,889,w2a7296e,Yellow,0.0,2292.0,1,1,8,choice,Before,Yellow,2,-2,2.0,2,2,0,2
474,896,w1629b0b,Food,0.0,2978.0,0,1,1,choice,After,Food,1,2,0.0,5,5,1,1
475,897,w1629b0b,Red,0.0,1967.0,1,1,2,choice,Before,Red,1,-1,0.0,4,4,1,1
476,898,w1629b0b,Food,1.0,7325.0,1,1,3,choice,After,Food,1,2,0.0,3,3,1,1
477,899,w1629b0b,Object,0.0,1586.0,1,1,4,choice,Before,Object,3,-1,0.0,4,4,2,2
478,900,w1629b0b,Red,1.0,3360.0,1,1,5,choice,After,Red,2,3,0.0,3,3,1,2
479,901,w1629b0b,Scene,1.0,1218.0,1,1,6,choice,Before,Scene,1,2,0.0,2,2,1,2
480,902,w1629b0b,Blue,0.0,3461.0,1,1,7,choice,After,Blue,2,-2,0.0,4,4,1,1
481,903,w1629b0b,Object,0.0,3644.0,1,1,8,choice,Before,Object,1,-2,0.0,3,3,0,1
482,910,w580c449,Food,0.0,4551.0,1,1,1,choice,After,Food,1,-2,-2.0,4,4,0,0
483,911,w580c449,Food,0.0,6104.0,1,1,2,choice,Before,Food,1,-2,1.0,5,5,1,1
484,912,w580c449,Red,1.0,1124.0,0,1,3,choice,After,Red,2,-1,-3.0,3,3,2,2
485,913,w580c449,Object,0.0,6377.0,0,1,4,choice,Before,Object,1,1,-2.0,1,1,0,0
486,914,w580c449,Yellow,1.0,2630.0,0,1,5,choice,After,Yellow,2,-1,1.0,2,2,1,1
487,915,w580c449,Food,1.0,3284.0,0,1,6,choice,Before,Food,3,-1,3.0,4,4,2,2
488,916,w580c449,Animal,1.0,1920.0,1,1,7,choice,After,Animal,1,2,1.0,2,2,0,0
489,917,w580c449,Blue,0.0,1757.0,1,1,8,choice,Before,Blue,3,-2,1.0,1,1,0,1
490,924,w768a02c,Green,0.0,2141.0,1,1,1,choice,Before,Green,2,-4,-4.0,4,4,2,2
491,925,w768a02c,Object,,,0,1,2,choice,After,Object,2,-4,1.0,4,4,1,1
492,926,w768a02c,Yellow,1.0,1283.0,1,1,3,choice,Before,Yellow,3,5,5.0,5,5,3,3
493,927,w768a02c,Yellow,1.0,3113.0,1,1,4,choice,After,Yellow,3,1,1.0,4,4,2,3
494,928,w768a02c,Yellow,1.0,1154.0,1,1,5,choice,Before,Yellow,2,1,1.0,4,4,1,2
495,929,w768a02c,Scene,0.0,2070.0,0,1,6,choice,After,Scene,2,4,1.0,3,3,1,1
496,930,w768a02c,Object,1.0,2403.0,1,1,7,choice,Before,Object,2,1,1.0,5,5,2,2
497,931,w768a02c,Green,0.0,2999.0,1,1,8,choice,After,Green,2,-1,-1.0,3,3,2,2
498,938,w308aa07,Yellow,,,0,1,1,choice,Before,Yellow,3,3,2.0,1,1,1,1
499,939,w308aa07,Scene,1.0,3840.0,0,1,2,choice,After,Scene,1,-1,1.0,5,5,1,1
500,940,w308aa07,Object,1.0,1000.0,1,1,3,choice,Before,Object,1,1,2.0,4,4,1,1
501,941,w308aa07,Blue,,,0,1,5,choice,Before,Blue,1,-2,-2.0,6,6,1,1
502,942,w308aa07,Red,0.0,4199.0,1,1,6,choice,After,Red,2,-3,0.0,5,5,1,1
503,943,w308aa07,Food,0.0,3551.0,1,1,7,choice,Before,Food,1,-2,-2.0,6,6,1,1
504,944,w308aa07,Object,0.0,5619.0,1,1,8,choice,After,Object,3,-3,-3.0,5,5,2,2
505,951,w365c8db,Red,1.0,3082.0,1,1,1,choice,After,Red,2,1,-1.0,2,2,1,3
506,952,w365c8db,Yellow,1.0,1742.0,1,1,2,choice,Before,Yellow,2,1,1.0,2,2,0,1
507,953,w365c8db,Food,1.0,4957.0,0,1,3,choice,After,Food,3,-5,1.0,5,5,3,3
508,954,w365c8db,Yellow,0.0,1517.0,1,1,4,choice,Before,Yellow,3,-1,-1.0,4,4,2,3
509,955,w365c8db,Animal,0.0,2492.0,0,1,5,choice,After,Animal,2,3,1.0,2,2,0,1
510,956,w365c8db,Food,0.0,2078.0,1,1,6,choice,Before,Food,2,-2,3.0,3,3,2,2
511,957,w365c8db,Green,0.0,2117.0,1,1,7,choice,After,Green,3,-5,-5.0,4,4,2,2
512,958,w365c8db,Animal,0.0,4849.0,1,1,8,choice,Before,Animal,2,-1,-1.0,5,5,2,2
513,965,w737e6e4,Red,0.0,2499.0,1,1,1,choice,After,Red,1,-1,-1.0,4,4,1,2
514,966,w737e6e4,Green,1.0,1500.0,1,1,2,choice,Before,Green,2,3,3.0,5,5,2,2
515,967,w737e6e4,Food,1.0,6676.0,1,1,3,choice,After,Food,1,1,1.0,5,5,1,1
516,968,w737e6e4,Green,0.0,1374.0,1,1,4,choice,Before,Green,2,-3,-3.0,4,4,2,2
517,969,w737e6e4,Object,0.0,6402.0,1,1,5,choice,After,Object,3,-3,0.0,3,3,1,2
518,970,w737e6e4,Green,1.0,841.0,1,1,6,choice,Before,Green,1,1,1.0,5,5,1,1
519,971,w737e6e4,Scene,1.0,2161.0,1,1,7,choice,After,Scene,3,3,2.0,2,2,2,2
520,972,w737e6e4,Object,0.0,2182.0,1,1,8,choice,Before,Object,1,-2,-1.0,4,4,0,0
521,979,wc097323,Animal,,,0,1,1,choice,After,Animal,2,3,3.0,3,3,1,1
522,980,wc097323,Object,1.0,4376.0,0,1,2,choice,Before,Object,2,-2,-3.0,5,5,1,1
523,981,wc097323,Food,0.0,2385.0,1,1,3,choice,After,Food,3,-1,1.0,6,6,3,3
524,982,wc097323,Object,0.0,743.0,1,1,4,choice,Before,Object,1,-2,-2.0,6,6,1,1
525,983,wc097323,Yellow,0.0,5716.0,1,1,5,choice,After,Yellow,2,-1,-2.0,6,6,2,2
526,984,wc097323,Red,1.0,544.0,1,1,6,choice,Before,Red,2,3,3.0,6,6,2,2
527,985,wc097323,Red,0.0,2844.0,1,1,7,choice,After,Red,3,-3,-4.0,6,6,3,3
528,986,wc097323,Blue,1.0,1105.0,1,1,8,choice,Before,Blue,3,4,5.0,6,6,3,3
529,993,w35dbe71,Object,1.0,5844.0,1,1,1,choice,Before,Object,2,4,4.0,6,6,2,2
530,994,w35dbe71,Scene,1.0,3962.0,0,1,2,choice,After,Scene,3,-1,1.0,6,6,3,3
531,995,w35dbe71,Scene,,,0,1,3,choice,Before,Scene,1,-2,-2.0,6,6,1,1
532,996,w35dbe71,Object,,,0,1,4,choice,After,Object,3,1,0.0,4,4,2,2
533,997,w35dbe71,Blue,0.0,2129.0,1,1,5,choice,Before,Blue,2,-1,-1.0,5,5,2,2
534,998,w35dbe71,Yellow,,,0,1,6,choice,After,Yellow,2,-2,-2.0,6,6,2,2
535,999,w35dbe71,Red,1.0,3639.0,1,1,7,choice,Before,Red,1,2,2.0,6,6,1,1
536,1000,w35dbe71,Animal,1.0,5433.0,1,1,8,choice,After,Animal,3,1,1.0,5,5,3,3
537,1007,w7f90916,Object,1.0,2970.0,0,1,1,choice,Before,Object,3,-3,2.0,5,5,3,3
538,1008,w7f90916,Green,1.0,5813.0,1,1,2,choice,After,Green,1,2,2.0,6,6,1,1
539,1009,w7f90916,Animal,,,0,1,3,choice,Before,Animal,1,-1,-1.0,6,6,1,1
540,1010,w7f90916,Red,1.0,2371.0,1,1,4,choice,After,Red,1,2,2.0,5,5,1,1
541,1011,w7f90916,Object,0.0,1348.0,1,1,5,choice,Before,Object,3,-2,2.0,4,4,1,1
542,1012,w7f90916,Scene,1.0,2920.0,0,1,6,choice,After,Scene,3,-2,-1.0,5,5,3,3
543,1013,w7f90916,Scene,0.0,1876.0,1,1,7,choice,Before,Scene,1,-1,-1.0,4,4,1,1
544,1014,w7f90916,Yellow,0.0,4252.0,1,1,8,choice,After,Yellow,2,-4,-3.0,1,1,0,0
545,1021,w9051394,Scene,1.0,3494.0,0,1,1,choice,After,Scene,2,-3,0.0,4,4,2,3
546,1022,w9051394,Blue,1.0,1671.0,1,1,2,choice,Before,Blue,2,2,2.0,5,5,2,2
547,1023,w9051394,Object,0.0,6401.0,0,1,3,choice,After,Object,1,1,1.0,6,6,1,1
548,1024,w9051394,Yellow,1.0,5369.0,1,1,4,choice,Before,Yellow,2,1,1.0,6,6,2,2
549,1025,w9051394,Object,1.0,1913.0,0,1,5,choice,After,Object,1,-1,-1.0,6,6,1,1
550,1026,w9051394,Yellow,1.0,1464.0,1,1,6,choice,Before,Yellow,1,2,2.0,6,6,1,1
551,1027,w9051394,Green,0.0,4032.0,1,1,7,choice,After,Green,1,-2,-2.0,6,6,1,1
552,1028,w9051394,Yellow,1.0,1580.0,1,1,8,choice,Before,Yellow,2,2,2.0,6,6,2,2
553,1035,w5ab5786,Animal,1.0,2085.0,1,1,1,choice,Before,Animal,2,1,0.0,1,1,0,1
554,1036,w5ab5786,Food,0.0,1764.0,1,1,2,choice,After,Food,1,-2,2.0,4,4,1,2
555,1037,w5ab5786,Animal,1.0,1525.0,1,1,3,choice,Before,Animal,2,4,1.0,2,2,1,1
556,1038,w5ab5786,Animal,1.0,1837.0,1,1,4,choice,After,Animal,3,1,4.0,1,1,1,1
557,1039,w5ab5786,Yellow,0.0,2507.0,1,1,5,choice,Before,Yellow,2,-2,-3.0,1,1,0,0
558,1040,w5ab5786,Red,0.0,2176.0,1,1,7,choice,Before,Red,3,-1,-5.0,3,3,1,1
559,1041,w44f5ace,Red,1.0,2399.0,1,1,1,choice,Before,Red,1,2,1.0,3,3,1,2
560,1042,w44f5ace,Yellow,0.0,1487.0,0,1,2,choice,After,Yellow,3,5,2.0,4,4,3,3
561,1043,w44f5ace,Animal,1.0,5034.0,0,1,4,choice,After,Animal,2,-1,-1.0,2,2,1,1
562,1044,w44f5ace,Scene,1.0,1936.0,1,1,5,choice,Before,Scene,3,6,-2.0,2,2,2,2
563,1045,w44f5ace,Animal,1.0,6249.0,1,1,6,choice,After,Animal,2,2,-2.0,3,3,1,1
564,1046,w44f5ace,Scene,1.0,2048.0,0,1,7,choice,Before,Scene,3,-1,-2.0,3,3,3,3
565,1047,w44f5ace,Red,1.0,75.0,0,1,8,choice,After,Red,3,-3,2.0,2,2,1,2
566,1054,we1b8e64,Red,1.0,3327.0,1,1,1,choice,After,Red,2,3,4.0,3,3,2,3
567,1055,we1b8e64,Food,0.0,2170.0,1,1,2,choice,Before,Food,2,-1,-1.0,6,6,2,2
568,1056,we1b8e64,Red,,,0,1,3,choice,After,Red,2,-1,2.0,4,4,1,1
569,1057,we1b8e64,Object,1.0,1140.0,1,1,4,choice,Before,Object,1,2,2.0,5,5,1,1
570,1058,we1b8e64,Object,1.0,3454.0,1,1,5,choice,After,Object,3,2,2.0,4,4,3,3
571,1059,we1b8e64,Scene,1.0,2486.0,1,1,6,choice,Before,Scene,3,1,1.0,4,4,3,3
572,1060,we1b8e64,Animal,0.0,2312.0,1,1,7,choice,After,Animal,2,-1,-1.0,5,5,2,2
573,1061,we1b8e64,Yellow,1.0,834.0,1,1,8,choice,Before,Yellow,2,3,3.0,3,3,2,2
574,1068,w44c6cc9,Scene,0.0,6574.0,1,1,1,choice,Before,Scene,2,-2,-2.0,5,5,2,2
575,1069,w44c6cc9,Blue,,,0,1,2,choice,After,Blue,2,3,-1.0,5,5,2,2
576,1070,w44c6cc9,Blue,1.0,6325.0,0,1,3,choice,Before,Blue,1,-1,-1.0,5,5,0,1
577,1071,w44c6cc9,Yellow,,,0,1,4,choice,After,Yellow,2,-1,-1.0,5,5,1,2
578,1072,w44c6cc9,Scene,0.0,1173.0,1,1,5,choice,Before,Scene,2,-1,-1.0,6,6,2,2
579,1073,w44c6cc9,Yellow,0.0,4113.0,1,1,6,choice,After,Yellow,1,-2,-2.0,6,6,1,1
580,1074,w44c6cc9,Blue,1.0,800.0,1,1,7,choice,Before,Blue,3,2,2.0,5,5,3,3
581,1075,w44c6cc9,Food,1.0,4691.0,1,1,8,choice,After,Food,1,1,1.0,4,4,1,1
582,1082,w60e6ea8,Food,0.0,1304.0,1,1,1,choice,Before,Food,1,-1,-1.0,4,4,1,2
583,1083,w60e6ea8,Object,1.0,6256.0,1,1,2,choice,After,Object,2,4,3.0,3,3,1,1
584,1084,w60e6ea8,Blue,1.0,1055.0,1,1,3,choice,Before,Blue,1,1,1.0,3,3,1,1
585,1085,w60e6ea8,Animal,1.0,3244.0,1,1,4,choice,After,Animal,1,2,2.0,3,3,0,2
586,1086,w60e6ea8,Scene,1.0,1108.0,1,1,5,choice,Before,Scene,2,3,3.0,5,5,2,2
587,1087,w60e6ea8,Red,0.0,2834.0,1,1,6,choice,After,Red,2,-1,-3.0,4,4,1,1
588,1088,w60e6ea8,Food,1.0,2575.0,0,1,7,choice,Before,Food,1,-2,-2.0,3,3,1,2
589,1089,w60e6ea8,Red,0.0,3529.0,0,1,8,choice,After,Red,1,2,2.0,2,2,0,1
590,1096,wbe569b5,Blue,1.0,1049.0,1,1,1,choice,Before,Blue,3,1,1.0,3,3,2,2
591,1097,wbe569b5,Scene,0.0,7117.0,0,1,2,choice,After,Scene,3,2,-3.0,6,6,3,3
592,1098,wbe569b5,Red,0.0,676.0,1,1,3,choice,Before,Red,2,-3,-3.0,6,6,2,2
593,1099,wbe569b5,Yellow,1.0,1809.0,0,1,4,choice,After,Yellow,3,-1,0.0,4,4,2,3
594,1100,wbe569b5,Scene,0.0,1725.0,1,1,5,choice,Before,Scene,1,-2,-1.0,5,5,1,1
595,1101,wbe569b5,Red,0.0,2040.0,1,1,6,choice,After,Red,2,-3,-1.0,4,4,2,2
596,1102,wbe569b5,Red,0.0,1151.0,1,1,7,choice,Before,Red,3,-2,-2.0,5,5,2,3
597,1103,wbe569b5,Food,0.0,4697.0,0,1,8,choice,After,Food,1,2,-1.0,3,3,1,3
598,1110,wafacea9,Green,1.0,5205.0,0,1,1,choice,After,Green,2,-4,-2.0,2,2,1,1
599,1111,wafacea9,Scene,1.0,5612.0,1,1,2,choice,Before,Scene,3,2,-1.0,3,3,2,2
600,1112,wdfdc927,Object,1.0,4096.0,0,1,1,choice,After,Object,3,-1,3.0,4,4,2,2
601,1113,wdfdc927,Green,1.0,5396.0,1,1,2,choice,Before,Green,1,2,-2.0,6,6,1,1
602,1114,wdfdc927,Green,1.0,7240.0,1,1,3,choice,After,Green,3,1,1.0,4,4,2,2
603,1115,wdfdc927,Red,1.0,1737.0,1,1,4,choice,Before,Red,1,1,1.0,6,6,1,1
604,1116,wdfdc927,Yellow,1.0,3762.0,1,1,5,choice,After,Yellow,1,1,-1.0,6,6,1,1
605,1117,wdfdc927,Red,0.0,6001.0,0,1,6,choice,Before,Red,3,1,-1.0,6,6,3,3
606,1118,wdfdc927,Animal,,,0,1,7,choice,After,Animal,2,3,-3.0,2,2,0,0
607,1119,wdfdc927,Scene,1.0,540.0,1,1,8,choice,Before,Scene,1,1,1.0,6,6,1,1
608,1126,w2991322,Green,1.0,2048.0,0,1,1,choice,After,Green,2,-2,0.0,2,2,0,1
609,1127,w2991322,Green,0.0,4659.0,1,1,2,choice,Before,Green,2,-1,-1.0,2,2,1,1
610,1128,w2991322,Yellow,0.0,4722.0,1,1,3,choice,After,Yellow,1,-1,-1.0,2,2,0,0
611,1129,w2991322,Food,0.0,3130.0,1,1,4,choice,Before,Food,1,-2,-2.0,4,4,1,1
612,1130,w2991322,Scene,0.0,3748.0,1,1,5,choice,After,Scene,3,-1,-1.0,5,5,2,2
613,1131,w2991322,Food,1.0,3349.0,1,1,6,choice,Before,Food,3,5,-2.0,2,2,1,1
614,1132,w2991322,Object,1.0,2717.0,0,1,7,choice,After,Object,1,-2,1.0,5,5,1,1
615,1133,w2991322,Red,1.0,3498.0,1,1,8,choice,Before,Red,3,1,3.0,2,2,1,2
616,1140,wa79cf20,Green,1.0,3816.0,1,1,1,choice,After,Green,2,3,-3.0,5,5,1,2
617,1141,wa79cf20,Green,0.0,1518.0,1,1,2,choice,Before,Green,2,-1,-1.0,5,5,2,2
618,1142,wa79cf20,Scene,0.0,6716.0,0,1,3,choice,After,Scene,1,1,-1.0,5,5,1,2
619,1143,wa79cf20,Blue,1.0,596.0,1,1,4,choice,Before,Blue,3,3,3.0,5,5,3,3
620,1144,wa79cf20,Green,1.0,1640.0,1,1,5,choice,After,Green,3,6,6.0,4,4,3,3
621,1145,wa79cf20,Animal,1.0,1419.0,0,1,6,choice,Before,Animal,2,-1,1.0,3,3,1,1
622,1146,wa79cf20,Green,1.0,6481.0,1,1,7,choice,After,Green,2,2,4.0,3,3,0,1
623,1147,wa79cf20,Object,1.0,2695.0,1,1,8,choice,Before,Object,2,1,1.0,5,5,1,1
624,1154,wb56c2d3,Food,0.0,1881.0,0,1,1,choice,After,Food,1,1,1.0,2,2,0,1
625,1155,wb56c2d3,Food,0.0,1239.0,1,1,2,choice,Before,Food,3,-3,-3.0,5,5,3,3
626,1156,wb56c2d3,Blue,0.0,1014.0,1,1,3,choice,After,Blue,2,-4,-4.0,4,4,1,2
627,1157,wb56c2d3,Scene,1.0,1249.0,1,1,4,choice,Before,Scene,1,2,2.0,3,3,1,1
628,1158,wb56c2d3,Green,1.0,2084.0,1,1,5,choice,After,Green,3,1,2.0,5,5,3,3
629,1159,wb56c2d3,Animal,1.0,1154.0,1,1,6,choice,Before,Animal,2,4,4.0,3,3,1,2
630,1160,wb56c2d3,Yellow,0.0,1654.0,0,1,7,choice,After,Yellow,1,2,-1.0,3,3,0,0
631,1161,wb56c2d3,Object,0.0,1002.0,1,1,8,choice,Before,Object,1,-2,-2.0,3,3,1,1
632,1168,w2bc0b21,Scene,1.0,2544.0,0,1,1,choice,After,Scene,1,-1,1.0,4,4,1,2
633,1169,w2bc0b21,Yellow,0.0,3336.0,0,1,2,choice,Before,Yellow,3,1,-3.0,5,5,2,2
634,1170,w2bc0b21,Green,1.0,3047.0,1,1,3,choice,After,Green,2,3,3.0,1,1,1,1
635,1171,w2bc0b21,Animal,0.0,2832.0,0,1,4,choice,Before,Animal,2,1,1.0,4,4,1,1
636,1172,w2bc0b21,Scene,0.0,1999.0,1,1,5,choice,After,Scene,3,-3,-3.0,4,4,2,2
637,1173,w2bc0b21,Blue,1.0,4658.0,1,1,6,choice,Before,Blue,1,1,1.0,3,3,1,1
638,1174,w2bc0b21,Food,1.0,1920.0,1,1,7,choice,After,Food,2,3,4.0,4,4,1,1
639,1175,w2bc0b21,Food,0.0,1860.0,1,1,8,choice,Before,Food,1,-1,-1.0,2,2,1,2
640,1182,w5f010fa,Blue,1.0,6913.0,1,1,1,choice,Before,Blue,3,2,0.0,4,4,3,3
641,1183,w5f010fa,Red,1.0,4884.0,1,1,2,choice,After,Red,3,2,0.0,6,6,2,2
642,1184,w5f010fa,Red,1.0,2314.0,1,1,3,choice,Before,Red,2,1,0.0,5,5,2,3
643,1185,w5f010fa,Blue,1.0,1936.0,0,1,4,choice,After,Blue,2,-3,-2.0,6,6,2,2
644,1186,w5f010fa,Food,1.0,2538.0,0,1,5,choice,Before,Food,3,-1,-1.0,6,6,3,3
645,1187,w5f010fa,Green,0.0,2820.0,0,1,6,choice,After,Green,3,1,1.0,6,6,3,3
646,1188,w5f010fa,Object,,,0,1,7,choice,Before,Object,2,3,3.0,5,5,2,2
647,1189,w5f010fa,Food,0.0,3033.0,0,1,8,choice,After,Food,1,1,1.0,6,6,1,1
648,1196,w962c662,Green,1.0,6464.0,1,1,1,choice,Before,Green,1,1,1.0,5,5,1,1
649,1197,w962c662,Red,0.0,1686.0,1,1,2,choice,After,Red,1,-2,-2.0,3,3,1,1
650,1198,w962c662,Blue,0.0,1032.0,1,1,3,choice,Before,Blue,1,-2,1.0,4,4,1,1
651,1199,w962c662,Animal,1.0,817.0,1,1,5,choice,Before,Animal,3,1,1.0,5,5,2,2
652,1200,w962c662,Yellow,1.0,2028.0,1,1,6,choice,After,Yellow,1,1,2.0,5,5,1,1
653,1201,w962c662,Yellow,0.0,1088.0,0,1,7,choice,Before,Yellow,2,1,1.0,1,1,1,1
654,1202,w962c662,Object,1.0,1896.0,0,1,8,choice,After,Object,3,-2,1.0,2,2,2,2
655,1209,w1571d58,Scene,,,0,1,1,choice,Before,Scene,3,-3,1.0,3,3,1,1
656,1210,w1571d58,Yellow,1.0,3717.0,0,1,2,choice,After,Yellow,3,-1,-2.0,3,3,2,2
657,1211,w1571d58,Green,1.0,3861.0,1,1,3,choice,Before,Green,1,1,-1.0,2,2,0,0
658,1212,w1571d58,Blue,0.0,4586.0,1,1,4,choice,After,Blue,1,-2,-1.0,4,4,0,0
659,1213,w1571d58,Red,1.0,5047.0,1,1,5,choice,Before,Red,2,2,2.0,6,6,2,2
660,1214,w1571d58,Food,1.0,1995.0,0,1,6,choice,After,Food,3,-1,0.0,6,6,3,3
661,1215,w1571d58,Object,1.0,3488.0,0,1,7,choice,Before,Object,2,-3,-3.0,6,6,2,2
662,1216,w1571d58,Blue,0.0,4093.0,1,1,8,choice,After,Blue,1,-2,-2.0,6,6,1,1
663,1223,w36b3d2f,Scene,1.0,6761.0,1,1,1,choice,Before,Scene,1,1,1.0,6,6,1,1
664,1224,w36b3d2f,Animal,1.0,6650.0,1,1,2,choice,After,Animal,1,2,2.0,6,6,1,1
665,1225,w36b3d2f,Green,1.0,2205.0,1,1,3,choice,Before,Green,2,1,1.0,6,6,2,2
666,1226,w36b3d2f,Blue,1.0,6764.0,1,1,4,choice,After,Blue,3,2,2.0,6,6,3,3
667,1227,w36b3d2f,Blue,,,0,1,5,choice,Before,Blue,2,-2,1.0,4,4,1,2
668,1228,w36b3d2f,Food,0.0,6483.0,1,1,6,choice,After,Food,3,-2,-2.0,6,6,3,3
669,1229,w36b3d2f,Green,1.0,1938.0,1,1,7,choice,Before,Green,2,1,1.0,6,6,2,2
670,1230,w36b3d2f,Food,0.0,5611.0,1,1,8,choice,After,Food,1,-1,-1.0,5,5,1,2
671,1237,w3d5caa9,Yellow,,,0,1,1,choice,After,Yellow,3,-3,1.0,2,2,0,0
672,1238,w3d5caa9,Green,1.0,2553.0,1,1,2,choice,Before,Green,3,3,-1.0,3,3,1,2
673,1239,w3d5caa9,Scene,,,0,1,3,choice,After,Scene,3,-4,-4.0,6,6,3,3
674,1240,w3d5caa9,Red,1.0,7472.0,1,1,4,choice,Before,Red,3,1,1.0,6,6,3,3
675,1241,w3d5caa9,Red,0.0,1927.0,1,1,5,choice,After,Red,2,-3,2.0,3,3,1,2
676,1242,w3d5caa9,Food,0.0,2778.0,1,1,6,choice,Before,Food,3,-1,-1.0,4,4,3,3
677,1243,w3d5caa9,Object,1.0,5456.0,0,1,7,choice,After,Object,3,-2,-2.0,6,6,3,3
678,1244,w3d5caa9,Food,1.0,2172.0,1,1,8,choice,Before,Food,1,2,2.0,4,4,1,1
679,1251,wa6daa50,Yellow,,,0,1,1,choice,After,Yellow,3,-1,1.0,6,6,3,3
680,1252,wa6daa50,Yellow,1.0,662.0,1,1,2,choice,Before,Yellow,2,3,2.0,3,3,1,1
681,1253,wa6daa50,Green,0.0,1984.0,0,1,3,choice,After,Green,3,2,1.0,5,5,3,3
682,1254,wa6daa50,Scene,1.0,1631.0,0,1,4,choice,Before,Scene,2,-1,-1.0,4,4,2,2
683,1255,wa6daa50,Food,1.0,2029.0,1,1,5,choice,After,Food,1,2,2.0,3,3,1,2
684,1256,wa6daa50,Food,1.0,1231.0,1,1,6,choice,Before,Food,2,2,2.0,3,3,1,2
685,1257,wa6daa50,Scene,0.0,3251.0,1,1,7,choice,After,Scene,1,-1,2.0,2,2,1,2
686,1258,wa6daa50,Food,1.0,1030.0,1,1,8,choice,Before,Food,3,2,1.0,2,2,2,2
687,1265,w51664f0,Red,0.0,4097.0,1,1,1,choice,Before,Red,1,-1,-1.0,3,3,1,1
688,1266,w51664f0,Green,0.0,3587.0,1,1,2,choice,After,Green,2,-2,-2.0,4,4,1,1
689,1267,w51664f0,Object,0.0,3572.0,1,1,3,choice,Before,Object,3,-2,-2.0,2,2,1,1
690,1268,w51664f0,Object,0.0,3383.0,1,1,4,choice,After,Object,3,-3,-2.0,1,1,1,1
691,1269,w51664f0,Object,0.0,1245.0,1,1,5,choice,Before,Object,1,-1,-2.0,2,2,0,1
692,1282,w2cb5760,Scene,0.0,7084.0,1,1,1,choice,Before,Scene,1,-2,1.0,1,1,1,1
693,1283,w0b3246f,Food,1.0,1824.0,1,1,1,choice,After,Food,1,2,-1.0,1,1,0,2
694,1284,w0b3246f,Blue,0.0,4211.0,0,1,2,choice,Before,Blue,2,1,1.0,4,4,1,1
695,1285,w0b3246f,Yellow,1.0,4025.0,0,1,3,choice,After,Yellow,3,-2,0.0,6,6,3,3
696,1286,w0b3246f,Object,,,0,1,4,choice,Before,Object,1,1,1.0,6,6,1,1
697,1287,w0b3246f,Animal,0.0,3086.0,0,1,5,choice,After,Animal,2,4,4.0,6,6,2,2
698,1288,w0b3246f,Yellow,0.0,4197.0,1,1,6,choice,Before,Yellow,1,-2,2.0,5,5,0,1
699,1289,w0b3246f,Yellow,1.0,2838.0,1,1,7,choice,After,Yellow,2,1,4.0,5,5,2,2
700,1290,w0b3246f,Food,1.0,2025.0,1,1,8,choice,Before,Food,1,2,2.0,2,2,0,0
701,1297,w0d04a41,Object,1.0,3389.0,0,1,1,choice,Before,Object,3,-1,3.0,3,3,1,1
702,1298,w0d04a41,Scene,1.0,2586.0,1,1,2,choice,After,Scene,3,2,2.0,5,5,2,2
703,1299,w0d04a41,Green,1.0,1470.0,1,1,3,choice,Before,Green,1,2,2.0,6,6,1,1
704,1300,w0d04a41,Object,,,0,1,4,choice,After,Object,1,-1,-1.0,4,4,0,0
705,1301,w0d04a41,Yellow,0.0,6868.0,0,1,5,choice,Before,Yellow,2,1,-2.0,6,6,2,2
706,1302,w0d04a41,Object,1.0,6847.0,0,1,6,choice,After,Object,1,-2,-2.0,6,6,1,1
707,1303,w0d04a41,Blue,1.0,4896.0,0,1,7,choice,Before,Blue,1,-2,-1.0,4,4,0,0
708,1304,w0d04a41,Blue,1.0,4727.0,0,1,8,choice,After,Blue,3,-2,-1.0,5,5,2,2
709,1311,wf63c50b,Food,,,0,1,1,choice,Before,Food,1,1,1.0,5,5,1,1
710,1312,wf63c50b,Yellow,1.0,4303.0,1,1,2,choice,After,Yellow,2,2,2.0,6,6,2,2
711,1313,wf63c50b,Scene,1.0,5107.0,0,1,3,choice,Before,Scene,2,-4,-4.0,5,5,2,2
712,1314,wf63c50b,Animal,,,0,1,4,choice,After,Animal,3,1,1.0,2,2,0,0
713,1315,wf63c50b,Yellow,1.0,3725.0,0,1,5,choice,Before,Yellow,1,-2,-1.0,2,2,0,0
714,1316,wf63c50b,Yellow,1.0,1844.0,1,1,6,choice,After,Yellow,1,2,1.0,1,1,0,0
715,1317,wf63c50b,Animal,0.0,3249.0,0,1,7,choice,Before,Animal,2,3,3.0,3,3,2,2
716,1318,wf63c50b,Yellow,,,0,1,8,choice,After,Yellow,2,4,2.0,3,3,1,1
717,1325,w3c538ad,Scene,0.0,3240.0,1,1,1,choice,After,Scene,3,-1,-1.0,4,4,2,2
718,1326,w3c538ad,Yellow,0.0,1070.0,1,1,2,choice,Before,Yellow,3,-2,-6.0,5,5,3,3
719,1327,w3c538ad,Yellow,1.0,3182.0,1,1,3,choice,After,Yellow,3,1,0.0,4,4,1,2
720,1328,w3c538ad,Scene,1.0,994.0,1,1,4,choice,Before,Scene,1,2,2.0,6,6,1,1
721,1329,w3c538ad,Scene,1.0,2698.0,1,1,5,choice,After,Scene,2,3,3.0,4,4,2,2
722,1330,w3c538ad,Scene,0.0,848.0,1,1,6,choice,Before,Scene,1,-2,-2.0,4,4,1,1
723,1331,w3c538ad,Blue,1.0,1889.0,1,1,7,choice,After,Blue,2,2,2.0,5,5,2,2
724,1332,w3c538ad,Red,0.0,1703.0,1,1,8,choice,Before,Red,3,-2,2.0,5,5,3,3
725,1339,wd47555e,Red,1.0,6343.0,1,1,1,choice,Before,Red,1,1,1.0,3,3,0,2
726,1340,wd47555e,Green,1.0,2823.0,1,1,2,choice,After,Green,2,4,0.0,4,4,1,1
727,1341,wd47555e,Yellow,0.0,2352.0,1,1,3,choice,Before,Yellow,3,-4,3.0,4,4,2,3
728,1342,wd47555e,Animal,1.0,3236.0,0,1,4,choice,After,Animal,2,-3,-1.0,1,1,1,2
729,1343,wd47555e,Red,0.0,1018.0,1,1,5,choice,Before,Red,2,-3,-3.0,4,4,1,1
730,1344,wd47555e,Scene,0.0,6324.0,1,1,6,choice,After,Scene,1,-2,-2.0,6,6,1,1
731,1345,wd47555e,Food,,,0,1,7,choice,Before,Food,1,2,2.0,6,6,1,1
732,1346,wd47555e,Object,1.0,6059.0,1,1,8,choice,After,Object,1,2,2.0,6,6,1,1
733,1353,w7232115,Red,1.0,1976.0,1,1,1,choice,Before,Red,2,4,4.0,4,4,1,2
734,1354,w7232115,Green,1.0,3900.0,0,1,2,choice,After,Green,1,-2,-2.0,3,3,1,2
735,1355,w7232115,Blue,,,0,1,3,choice,Before,Blue,1,-1,-1.0,3,3,0,1
736,1356,w7232115,Yellow,0.0,3795.0,1,1,4,choice,After,Yellow,3,-1,1.0,6,6,3,3
737,1357,w7232115,Food,1.0,1801.0,1,1,5,choice,Before,Food,1,2,2.0,5,5,1,1
738,1358,w7232115,Scene,0.0,3474.0,1,1,6,choice,After,Scene,3,-2,-3.0,5,5,2,2
739,1359,w7232115,Animal,1.0,4289.0,1,1,7,choice,Before,Animal,2,4,2.0,3,3,0,0
740,1366,w182a5f6,Yellow,0.0,2173.0,1,1,1,choice,After,Yellow,3,-2,-5.0,6,6,3,3
741,1367,w182a5f6,Food,1.0,2296.0,1,1,2,choice,Before,Food,2,1,-2.0,4,4,2,2
742,1368,w182a5f6,Red,1.0,3526.0,0,1,3,choice,After,Red,2,-4,-4.0,4,4,1,1
743,1369,w182a5f6,Red,0.0,1279.0,1,1,4,choice,Before,Red,1,-2,-2.0,3,3,1,1
744,1370,wf469935,Yellow,0.0,7190.0,1,1,1,choice,After,Yellow,3,-2,3.0,2,2,0,0
745,1371,wf469935,Yellow,0.0,2946.0,1,1,2,choice,Before,Yellow,2,-4,-4.0,5,5,2,2
746,1372,wf469935,Green,1.0,3076.0,1,1,3,choice,After,Green,3,3,3.0,6,6,3,3
747,1373,wf469935,Red,0.0,2139.0,1,1,4,choice,Before,Red,1,-2,-1.0,1,1,0,0
748,1374,wf469935,Blue,0.0,3411.0,1,1,5,choice,After,Blue,2,-1,-2.0,5,5,2,2
749,1375,wf469935,Food,0.0,2214.0,1,1,6,choice,Before,Food,2,-1,-1.0,4,4,2,2
750,1376,wf469935,Animal,1.0,7421.0,1,1,7,choice,After,Animal,2,1,1.0,5,5,1,1
751,1377,wf469935,Food,0.0,1533.0,1,1,8,choice,Before,Food,3,-2,-2.0,5,5,3,3
752,1384,w610dd08,Object,0.0,1885.0,1,1,1,choice,Before,Object,2,-3,-4.0,6,6,2,2
753,1385,w610dd08,Yellow,1.0,4323.0,1,1,2,choice,After,Yellow,3,3,2.0,5,5,3,3
754,1386,w610dd08,Red,0.0,2432.0,1,1,3,choice,Before,Red,3,-4,-6.0,3,3,2,2
755,1387,w610dd08,Blue,1.0,1519.0,0,1,4,choice,After,Blue,3,-2,0.0,2,2,1,2
756,1388,w610dd08,Blue,1.0,1346.0,0,1,5,choice,Before,Blue,2,-1,3.0,4,4,1,1
757,1389,w610dd08,Food,1.0,1759.0,1,1,6,choice,After,Food,3,1,1.0,4,4,3,3
758,1390,w610dd08,Object,1.0,2721.0,0,1,7,choice,Before,Object,1,-1,1.0,2,2,1,1
759,1391,w610dd08,Animal,1.0,2950.0,1,1,8,choice,After,Animal,3,2,2.0,2,2,1,2
760,1398,wad32437,Animal,1.0,1549.0,1,1,1,choice,Before,Animal,2,1,4.0,4,4,1,1
761,1399,wad32437,Object,1.0,1233.0,1,1,2,choice,After,Object,2,2,0.0,2,2,0,1
762,1400,wad32437,Animal,0.0,1160.0,0,1,3,choice,Before,Animal,2,3,-1.0,2,2,0,0
763,1401,wad32437,Blue,1.0,2008.0,1,1,4,choice,After,Blue,2,4,4.0,4,4,1,1
764,1402,wad32437,Yellow,1.0,938.0,1,1,5,choice,Before,Yellow,2,2,4.0,5,5,2,2
765,1403,wad32437,Green,1.0,1039.0,1,1,6,choice,After,Green,3,2,0.0,2,2,1,2
766,1404,wad32437,Blue,1.0,720.0,0,1,7,choice,Before,Blue,1,-2,1.0,4,4,1,1
767,1405,wad32437,Food,1.0,3928.0,0,1,8,choice,After,Food,1,-1,1.0,4,4,1,2
768,1412,w409b474,Green,0.0,3391.0,0,1,1,choice,After,Green,1,2,2.0,3,3,0,0
769,1413,w409b474,Yellow,1.0,975.0,1,1,2,choice,Before,Yellow,2,1,1.0,6,6,2,2
770,1414,w409b474,Food,1.0,6634.0,1,1,3,choice,After,Food,3,2,5.0,5,5,2,3
771,1415,w409b474,Scene,0.0,913.0,1,1,4,choice,Before,Scene,2,-1,-1.0,5,5,2,2
772,1416,w409b474,Yellow,0.0,2411.0,0,1,5,choice,After,Yellow,1,2,-2.0,3,3,1,2
773,1417,w409b474,Food,1.0,563.0,1,1,6,choice,Before,Food,2,2,2.0,5,5,2,2
774,1418,w409b474,Scene,0.0,3405.0,0,1,7,choice,After,Scene,1,1,1.0,5,5,1,1
775,1419,w409b474,Red,1.0,924.0,1,1,8,choice,Before,Red,3,4,4.0,6,6,3,3
776,1426,wc43fbaa,Food,0.0,7452.0,1,1,1,choice,Before,Food,1,-2,-2.0,1,1,0,0
777,1427,wc43fbaa,Object,,,0,1,2,choice,After,Object,1,-2,-2.0,5,5,1,1
778,1428,wc43fbaa,Food,1.0,4678.0,0,1,3,choice,Before,Food,1,-1,-2.0,4,4,1,1
779,1429,wc43fbaa,Object,,,0,1,4,choice,After,Object,3,-1,-2.0,6,6,3,3
780,1430,wc43fbaa,Yellow,1.0,4752.0,0,1,5,choice,Before,Yellow,1,-1,1.0,4,4,1,1
781,1431,wc43fbaa,Red,1.0,7172.0,1,1,6,choice,After,Red,2,1,-1.0,5,5,2,2
782,1432,wc43fbaa,Food,1.0,3302.0,1,1,7,choice,Before,Food,1,2,-1.0,5,5,0,0
783,1433,wc43fbaa,Yellow,0.0,4511.0,0,1,8,choice,After,Yellow,2,1,1.0,4,4,2,2
784,1440,w9f7c438,Red,1.0,6526.0,1,1,1,choice,After,Red,1,1,1.0,5,5,1,1
785,1441,w9f7c438,Red,0.0,3287.0,1,1,2,choice,Before,Red,1,-1,-1.0,2,2,1,1
786,1442,w9f7c438,Animal,0.0,3314.0,1,1,3,choice,After,Animal,3,-1,-2.0,1,1,1,1
787,1443,w9f7c438,Green,0.0,1918.0,1,1,4,choice,Before,Green,2,-3,-4.0,4,4,2,2
788,1444,w9f7c438,Object,1.0,3493.0,1,1,5,choice,After,Object,3,5,3.0,2,2,0,1
789,1445,w9f7c438,Blue,0.0,1934.0,1,1,6,choice,Before,Blue,3,-1,-1.0,3,3,2,2
790,1446,w9f7c438,Food,,,0,1,7,choice,After,Food,1,2,-2.0,4,4,0,0
791,1447,w3fc2d2c,Food,,,0,1,1,choice,After,Food,1,-1,-2.0,4,4,1,1
792,1448,w3fc2d2c,Blue,,,0,1,2,choice,Before,Blue,2,-2,-2.0,6,6,2,2
793,1449,w3fc2d2c,Food,1.0,2139.0,0,1,3,choice,After,Food,3,-1,3.0,3,3,2,2
794,1450,w3fc2d2c,Red,1.0,2082.0,1,1,4,choice,Before,Red,1,2,2.0,5,5,1,1
795,1451,w3fc2d2c,Scene,0.0,3208.0,1,1,5,choice,After,Scene,1,-2,-2.0,6,6,1,1
796,1452,w3fc2d2c,Yellow,0.0,4430.0,1,1,6,choice,Before,Yellow,1,-2,-2.0,6,6,1,1
797,1453,w3fc2d2c,Blue,0.0,5084.0,1,1,7,choice,After,Blue,1,-1,-1.0,6,6,1,1
798,1454,w3fc2d2c,Object,1.0,5036.0,1,1,8,choice,Before,Object,3,1,1.0,6,6,3,3
799,1461,we10d2c6,Yellow,0.0,7293.0,1,1,1,choice,After,Yellow,3,-1,0.0,5,5,2,2
800,1462,we10d2c6,Object,1.0,6917.0,1,1,2,choice,Before,Object,2,1,1.0,6,6,2,2
801,1463,we10d2c6,Yellow,1.0,7283.0,1,1,3,choice,After,Yellow,2,3,3.0,5,5,2,2
802,1464,we10d2c6,Green,,,0,1,4,choice,Before,Green,1,1,1.0,3,3,1,1
803,1465,we10d2c6,Object,1.0,3878.0,0,1,5,choice,After,Object,1,-2,1.0,2,2,0,0
804,1466,we10d2c6,Scene,1.0,2487.0,1,1,6,choice,Before,Scene,2,1,0.0,5,5,2,2
805,1467,we10d2c6,Food,1.0,1161.0,0,1,7,choice,After,Food,1,-2,2.0,1,1,0,1
806,1468,we26c55e,Food,1.0,6093.0,1,1,1,choice,Before,Food,1,1,1.0,2,2,0,1
807,1469,we26c55e,Food,1.0,3551.0,0,1,2,choice,After,Food,3,-1,3.0,3,3,0,1
808,1470,we26c55e,Food,0.0,3587.0,1,1,3,choice,Before,Food,1,-2,-1.0,4,4,1,1
809,1471,we26c55e,Scene,1.0,3026.0,1,1,4,choice,After,Scene,1,1,-1.0,3,3,1,2
810,1472,we26c55e,Red,0.0,2022.0,1,1,5,choice,Before,Red,2,-4,-2.0,5,5,2,2
811,1473,we26c55e,Green,1.0,2639.0,0,1,6,choice,After,Green,1,-1,-1.0,4,4,0,1
812,1474,we26c55e,Green,1.0,2502.0,1,1,7,choice,Before,Green,3,1,-1.0,3,3,1,2
813,1475,we26c55e,Blue,1.0,2200.0,1,1,8,choice,After,Blue,1,2,2.0,1,1,0,2
814,1482,w496c8be,Green,1.0,1155.0,1,1,1,choice,Before,Green,1,2,2.0,4,4,1,1
815,1483,w496c8be,Blue,1.0,1268.0,1,1,2,choice,After,Blue,3,2,4.0,5,5,2,2
816,1484,w496c8be,Scene,1.0,856.0,1,1,3,choice,Before,Scene,2,3,3.0,3,3,1,1
817,1485,w496c8be,Blue,1.0,987.0,1,1,5,choice,Before,Blue,2,4,4.0,4,4,2,2
818,1486,we90925d,Food,1.0,3754.0,0,1,1,choice,Before,Food,1,-2,-1.0,5,5,1,1
819,1487,we90925d,Green,0.0,2444.0,1,1,2,choice,After,Green,1,-2,-2.0,5,5,1,1
820,1488,we90925d,Yellow,1.0,2042.0,1,1,3,choice,Before,Yellow,3,4,5.0,5,5,3,3
821,1489,we90925d,Red,1.0,2488.0,1,1,4,choice,After,Red,1,2,2.0,5,5,1,1
822,1490,we90925d,Food,0.0,540.0,1,1,5,choice,Before,Food,3,-2,-2.0,5,5,2,2
823,1491,we90925d,Yellow,1.0,2814.0,0,1,6,choice,After,Yellow,1,-2,1.0,5,5,1,1
824,1492,we90925d,Blue,0.0,3260.0,1,1,7,choice,Before,Blue,1,-2,2.0,3,3,1,1
825,1493,we90925d,Object,1.0,3089.0,1,1,8,choice,After,Object,3,1,1.0,4,4,3,3
826,1500,w63ea659,Food,1.0,4584.0,1,1,1,choice,After,Food,1,2,1.0,4,4,1,2
827,1501,w63ea659,Food,1.0,961.0,1,1,2,choice,Before,Food,2,4,4.0,5,5,2,2
828,1502,w63ea659,Green,1.0,3034.0,1,1,3,choice,After,Green,3,5,2.0,5,5,2,2
829,1503,w63ea659,Red,1.0,885.0,1,1,4,choice,Before,Red,1,1,1.0,3,3,1,1
830,1504,w63ea659,Yellow,0.0,4362.0,0,1,5,choice,After,Yellow,1,2,-1.0,3,3,1,1
831,1505,w63ea659,Red,1.0,638.0,1,1,6,choice,Before,Red,3,1,1.0,5,5,2,2
832,1506,w63ea659,Animal,1.0,1564.0,0,1,7,choice,After,Animal,2,-1,-4.0,4,4,2,2
833,1507,w63ea659,Animal,1.0,708.0,1,1,8,choice,Before,Animal,2,1,1.0,3,3,1,2
834,1514,w31b60c3,Animal,1.0,5536.0,0,1,1,choice,Before,Animal,2,-3,1.0,4,4,1,2
835,1515,w31b60c3,Yellow,1.0,3380.0,1,1,2,choice,After,Yellow,3,2,4.0,5,5,3,3
836,1516,w31b60c3,Object,,,0,1,3,choice,Before,Object,2,1,3.0,4,4,2,2
837,1517,w31b60c3,Animal,1.0,3401.0,0,1,4,choice,After,Animal,2,-1,2.0,2,2,0,0
838,1518,w31b60c3,Yellow,1.0,925.0,1,1,5,choice,Before,Yellow,1,2,2.0,3,3,1,1
839,1519,w31b60c3,Green,0.0,5141.0,0,1,6,choice,After,Green,1,2,2.0,2,2,0,0
840,1520,w31b60c3,Food,1.0,1278.0,1,1,7,choice,Before,Food,1,1,1.0,3,3,1,1
841,1521,w31b60c3,Yellow,0.0,2364.0,0,1,8,choice,After,Yellow,2,3,0.0,1,1,0,0
842,1528,wed3d878,Green,1.0,4937.0,1,1,1,choice,Before,Green,2,2,0.0,5,5,1,1
843,1529,wed3d878,Green,,,0,1,2,choice,After,Green,2,-1,-2.0,4,4,1,1
844,1530,wed3d878,Scene,1.0,2162.0,1,1,3,choice,Before,Scene,1,2,1.0,3,3,0,1
845,1531,wed3d878,Animal,1.0,2329.0,1,1,4,choice,After,Animal,2,4,-1.0,5,5,2,2
846,1532,w0db2e6f,Blue,0.0,2039.0,1,1,1,choice,Before,Blue,3,-3,-5.0,3,3,2,2
847,1533,w0db2e6f,Object,1.0,3416.0,1,1,2,choice,After,Object,2,1,2.0,3,3,0,0
848,1534,w0db2e6f,Animal,1.0,2735.0,1,1,3,choice,Before,Animal,2,1,0.0,3,3,0,0
849,1535,w0db2e6f,Blue,0.0,1509.0,0,1,4,choice,After,Blue,2,2,2.0,2,2,1,1
850,1536,w0db2e6f,Scene,1.0,1350.0,1,1,5,choice,Before,Scene,1,1,1.0,2,2,0,0
851,1537,w0db2e6f,Food,0.0,1888.0,1,1,6,choice,After,Food,3,-1,2.0,2,2,2,2
852,1538,w0db2e6f,Blue,0.0,779.0,1,1,7,choice,Before,Blue,1,-1,0.0,1,1,1,1
853,1539,w5fb19e8,Blue,1.0,3419.0,1,1,1,choice,After,Blue,3,1,0.0,3,3,2,2
854,1540,w5fb19e8,Food,0.0,2982.0,1,1,2,choice,Before,Food,3,-2,-2.0,4,4,2,3
855,1541,w5fb19e8,Blue,0.0,4775.0,1,1,3,choice,After,Blue,2,-3,-3.0,3,3,1,2
856,1542,w5fb19e8,Green,0.0,2337.0,1,1,4,choice,Before,Green,2,-2,0.0,4,4,1,1
857,1543,w5fb19e8,Scene,1.0,4746.0,1,1,5,choice,After,Scene,2,3,3.0,4,4,2,3
858,1544,w5fb19e8,Food,0.0,1926.0,1,1,6,choice,Before,Food,3,-3,-2.0,5,5,3,3
859,1545,w5fb19e8,Object,1.0,2747.0,1,1,7,choice,After,Object,2,3,3.0,3,3,2,4
860,1546,w5fb19e8,Yellow,0.0,2814.0,1,1,8,choice,Before,Yellow,2,-2,-2.0,3,3,1,2
861,1553,wdde7ef1,Food,1.0,2543.0,1,1,1,choice,Before,Food,1,1,1.0,6,6,1,1
862,1554,wdde7ef1,Blue,1.0,1009.0,1,1,2,choice,After,Blue,2,2,2.0,5,5,2,2
863,1555,wdde7ef1,Yellow,0.0,840.0,1,1,3,choice,Before,Yellow,3,-2,-2.0,4,4,3,3
864,1556,wdde7ef1,Scene,0.0,4344.0,1,1,4,choice,After,Scene,2,-3,-3.0,5,5,1,1
865,1557,wdde7ef1,Green,1.0,642.0,1,1,5,choice,Before,Green,3,1,1.0,4,4,2,2
866,1558,wdde7ef1,Green,0.0,4712.0,1,1,6,choice,After,Green,3,-3,-4.0,4,4,2,3
867,1559,wdde7ef1,Object,0.0,1596.0,1,1,7,choice,Before,Object,2,-3,-3.0,4,4,1,2
868,1560,wdde7ef1,Green,,,0,1,8,choice,After,Green,2,-3,-1.0,4,4,1,2
869,1567,w56b42b0,Blue,1.0,3584.0,0,1,1,choice,Before,Blue,3,-3,5.0,3,3,1,1
870,1568,w56b42b0,Animal,,,0,1,2,choice,After,Animal,1,-2,-2.0,3,3,1,1
871,1569,w56b42b0,Object,1.0,4723.0,0,1,3,choice,Before,Object,3,-1,2.0,2,2,1,1
872,1570,w56b42b0,Yellow,0.0,2875.0,1,1,4,choice,After,Yellow,2,-1,-4.0,2,2,0,0
873,1571,w56b42b0,Green,1.0,2254.0,1,1,5,choice,Before,Green,3,2,2.0,3,3,2,2
874,1572,w56b42b0,Red,0.0,1651.0,1,1,6,choice,After,Red,3,-3,0.0,2,2,2,2
875,1573,w56b42b0,Red,0.0,2091.0,1,1,7,choice,Before,Red,1,-2,-2.0,2,2,1,2
876,1574,w56b42b0,Animal,0.0,2344.0,0,1,8,choice,After,Animal,3,2,-1.0,3,3,1,1
877,1581,w01da968,Object,0.0,2925.0,1,1,1,choice,Before,Object,2,-1,2.0,4,4,1,1
878,1582,w01da968,Blue,0.0,5086.0,1,1,2,choice,After,Blue,1,-1,-2.0,4,4,1,2
879,1583,w01da968,Scene,0.0,1467.0,1,1,3,choice,Before,Scene,1,-1,-1.0,4,4,1,1
880,1584,w01da968,Red,,,0,1,4,choice,After,Red,1,-2,1.0,5,5,1,1
881,1585,w01da968,Animal,1.0,1053.0,1,1,5,choice,Before,Animal,2,1,1.0,4,4,2,2
882,1586,w01da968,Yellow,0.0,1840.0,1,1,7,choice,Before,Yellow,3,-1,-1.0,4,4,3,3
883,1587,w01da968,Blue,0.0,2114.0,1,1,8,choice,After,Blue,2,-4,-4.0,3,3,2,2
884,1594,w896f77a,Animal,0.0,2232.0,1,1,1,choice,After,Animal,2,-3,0.0,3,3,1,2
885,1595,w896f77a,Yellow,1.0,1702.0,1,1,2,choice,Before,Yellow,3,2,2.0,5,5,3,4
886,1596,w896f77a,Blue,0.0,1632.0,0,1,3,choice,After,Blue,2,3,0.0,4,4,1,2
887,1597,w896f77a,Blue,0.0,2218.0,1,1,4,choice,Before,Blue,1,-2,-2.0,3,3,1,1
888,1598,w896f77a,Object,1.0,4534.0,1,1,5,choice,After,Object,3,5,5.0,6,6,3,3
889,1599,w896f77a,Animal,1.0,4388.0,1,1,6,choice,Before,Animal,2,1,1.0,3,3,2,2
890,1600,w896f77a,Green,1.0,3286.0,0,1,7,choice,After,Green,3,-4,-5.0,2,2,2,2
891,1601,w896f77a,Red,1.0,2751.0,1,1,8,choice,Before,Red,3,1,1.0,5,5,3,3
892,1602,wc8b5d36,Blue,1.0,2735.0,0,1,1,choice,After,Blue,2,-1,-1.0,4,4,2,2
893,1603,wc8b5d36,Scene,0.0,1757.0,1,1,2,choice,Before,Scene,1,-1,-1.0,4,4,1,1
894,1604,wc8b5d36,Object,1.0,4108.0,0,1,3,choice,After,Object,1,-1,-1.0,5,5,1,1
895,1605,wc8b5d36,Green,0.0,1711.0,1,1,4,choice,Before,Green,1,-1,-1.0,4,4,1,1
896,1606,wc8b5d36,Red,1.0,2822.0,1,1,5,choice,After,Red,2,4,4.0,5,5,2,2
897,1607,wc8b5d36,Green,0.0,1398.0,1,1,6,choice,Before,Green,3,-1,-1.0,6,6,3,3
898,1608,wc8b5d36,Food,0.0,3651.0,0,1,7,choice,After,Food,1,1,-1.0,3,3,0,2
899,1609,wc8b5d36,Red,1.0,801.0,1,1,8,choice,Before,Red,1,1,1.0,4,4,1,1
900,1616,wb2d9807,Blue,0.0,4757.0,0,1,1,choice,Before,Blue,3,1,-4.0,3,3,3,3
901,1617,wb2d9807,Blue,1.0,2611.0,1,1,2,choice,After,Blue,2,3,0.0,4,4,1,1
902,1618,wb2d9807,Yellow,0.0,3773.0,1,1,3,choice,Before,Yellow,3,-2,-6.0,3,3,3,3
903,1619,wb2d9807,Animal,0.0,1728.0,1,1,5,choice,Before,Animal,2,-1,0.0,1,1,0,0
904,1620,wb2d9807,Scene,1.0,2705.0,0,1,6,choice,After,Scene,2,-1,0.0,2,2,1,2
905,1621,w0baed73,Object,0.0,6990.0,0,1,1,choice,Before,Object,3,1,-2.0,5,5,3,3
906,1622,w0baed73,Scene,1.0,2631.0,0,1,2,choice,After,Scene,3,-4,0.0,4,4,2,2
907,1623,w0baed73,Animal,1.0,1151.0,1,1,3,choice,Before,Animal,2,1,0.0,5,5,2,2
908,1624,w0baed73,Blue,1.0,3329.0,0,1,4,choice,After,Blue,2,-3,-4.0,3,3,1,1
909,1625,w0baed73,Blue,1.0,1111.0,1,1,5,choice,Before,Blue,1,1,1.0,6,6,1,1
910,1626,w0baed73,Red,1.0,1417.0,1,1,7,choice,Before,Red,3,1,0.0,3,3,2,3
911,1627,wfd8b568,Red,1.0,6522.0,1,1,1,choice,After,Red,2,3,3.0,3,3,1,3
912,1628,wfd8b568,Yellow,0.0,1895.0,1,1,2,choice,Before,Yellow,2,-3,-3.0,4,4,2,2
913,1629,wfd8b568,Animal,,,0,1,3,choice,After,Animal,1,1,-2.0,3,3,1,1
914,1630,wfd8b568,Animal,0.0,1590.0,1,1,4,choice,Before,Animal,3,-2,-2.0,4,4,2,2
915,1631,wfd8b568,Yellow,0.0,2688.0,1,1,5,choice,After,Yellow,1,-2,1.0,3,3,0,3
916,1632,wfd8b568,Blue,1.0,2019.0,1,1,6,choice,Before,Blue,2,1,0.0,4,4,0,1
917,1633,wfd8b568,Animal,1.0,2759.0,1,1,7,choice,After,Animal,2,4,4.0,4,4,2,2
918,1634,wfd8b568,Scene,1.0,2441.0,1,1,8,choice,Before,Scene,1,1,1.0,3,3,1,2
919,1655,wfbb00e1,Blue,1.0,2197.0,1,1,1,choice,After,Blue,3,1,2.0,2,2,1,1
920,1656,wfbb00e1,Green,0.0,1837.0,0,1,2,choice,Before,Green,2,1,3.0,3,3,1,1
921,1657,wfbb00e1,Object,1.0,1844.0,0,1,3,choice,After,Object,3,-1,1.0,1,1,0,1
922,1658,wfbb00e1,Red,1.0,2298.0,1,1,4,choice,Before,Red,1,1,-2.0,3,3,0,0
923,1659,wfbb00e1,Scene,1.0,1420.0,0,1,5,choice,After,Scene,3,-1,2.0,3,3,1,1
924,1660,wfbb00e1,Food,1.0,2118.0,1,1,6,choice,Before,Food,3,1,5.0,3,3,1,1
925,1661,wfbb00e1,Red,0.0,5181.0,1,1,7,choice,After,Red,1,-1,2.0,2,2,1,2
926,1662,wfbb00e1,Blue,1.0,993.0,1,1,8,choice,Before,Blue,2,1,0.0,4,4,2,2
927,1670,wea09e5e,Yellow,0.0,3897.0,0,1,1,choice,After,Yellow,3,1,1.0,5,5,2,2
928,1671,wea09e5e,Scene,1.0,2038.0,1,1,2,choice,Before,Scene,1,2,2.0,5,5,1,1
929,1672,wea09e5e,Red,0.0,4371.0,0,1,3,choice,After,Red,3,1,-1.0,4,4,1,1
930,1673,wea09e5e,Object,1.0,4558.0,1,1,4,choice,Before,Object,2,1,3.0,5,5,2,2
931,1674,wea09e5e,Scene,0.0,6731.0,1,1,5,choice,After,Scene,2,-1,0.0,4,4,1,1
932,1675,wea09e5e,Animal,1.0,4809.0,0,1,6,choice,Before,Animal,1,-2,-2.0,6,6,1,1
933,1676,wea09e5e,Food,,,0,1,7,choice,After,Food,1,2,2.0,5,5,1,1
934,1677,wea09e5e,Yellow,1.0,921.0,0,1,8,choice,Before,Yellow,2,-1,-1.0,5,5,2,2
