,index,wid,option,choice,rt,correct,trial_number,game,phase,n_true_memories,value,remembered_value,n_total_memories_shown,n_total_memories,n_remembered_shown,n_remembered,recalled_mem_value
0,0,w18042a7,Pattern,1.0,2199.0,1,1,2,choice,4,1,2.0,1,1,1,1,2.0
1,3,w18042a7,Large,0.0,938.0,0,4,2,choice,3,2,3.0,1,1,1,1,2.0
2,4,w18042a7,Small,1.0,2099.0,0,1,3,choice,4,-1,0.0,1,1,1,1,-1.0
3,8,w18042a7,Object,1.0,2371.0,0,1,4,choice,2,-2,2.0,5,5,1,1,1.0
4,9,w18042a7,Large,0.0,837.0,0,2,4,choice,4,3,5.0,5,5,4,4,5.0
5,10,w18042a7,Land,0.0,1641.0,0,3,4,choice,1,1,1.0,5,5,1,1,1.0
6,11,w18042a7,Solid,1.0,2103.0,0,4,4,choice,3,-1,3.0,5,5,2,2,2.0
7,12,w18042a7,Land,0.0,3569.0,0,1,5,choice,1,1,1.0,5,5,1,1,1.0
8,13,w18042a7,Animal,1.0,2336.0,1,2,5,choice,4,3,3.0,5,5,4,4,3.0
9,14,w18042a7,Pattern,1.0,1280.0,0,3,5,choice,3,-1,-1.0,5,5,2,2,0.0
10,15,w18042a7,Small,1.0,1706.0,0,4,5,choice,2,-3,-3.0,5,5,1,1,-2.0
11,16,w18042a7,Solid,1.0,2697.0,1,1,6,choice,3,4,4.0,4,4,2,2,3.0
12,18,w18042a7,Large,1.0,2917.0,0,3,6,choice,2,-1,-1.0,4,4,1,1,-2.0
13,19,w18042a7,Land,1.0,951.0,0,4,6,choice,4,-1,-1.0,4,4,2,2,0.0
14,20,w18042a7,Pattern,1.0,1635.0,0,1,7,choice,4,-1,-1.0,6,6,4,4,-1.0
15,21,w18042a7,Object,0.0,3187.0,1,2,7,choice,3,-2,-2.0,6,6,3,3,-2.0
16,22,w18042a7,Large,1.0,1142.0,0,3,7,choice,2,-1,-1.0,6,6,2,2,-1.0
17,23,w18042a7,Sea,1.0,2031.0,1,4,7,choice,1,2,2.0,6,6,1,1,2.0
18,25,w2b4a70d,Animal,1.0,3165.0,0,2,1,choice,4,-1,1.0,3,3,1,3,-1.0
19,26,w2b4a70d,Large,1.0,1584.0,0,3,1,choice,2,-3,1.0,3,3,1,3,-1.0
20,27,w2b4a70d,Land,1.0,3420.0,0,4,1,choice,3,-5,0.0,3,3,1,2,-1.0
21,28,w2b4a70d,Animal,1.0,2477.0,1,1,2,choice,4,2,0.0,4,4,2,2,-1.0
22,29,w2b4a70d,Small,1.0,3839.0,0,2,2,choice,3,-2,-2.0,4,4,2,2,-1.0
23,30,w2b4a70d,Sea,0.0,4056.0,1,3,2,choice,2,-1,2.0,4,4,2,2,2.0
24,32,w2b4a70d,Object,1.0,1970.0,1,1,3,choice,4,4,0.0,4,4,3,4,-2.0
25,34,w2b4a70d,Pattern,0.0,1014.0,1,3,3,choice,3,-2,1.0,4,4,1,1,0.0
26,35,w2b4a70d,Land,1.0,4252.0,1,4,3,choice,2,1,-1.0,4,4,2,4,-1.0
27,36,w2b4a70d,Solid,1.0,1833.0,1,1,4,choice,3,1,3.0,5,5,3,3,3.0
28,37,w2b4a70d,Animal,1.0,919.0,0,2,4,choice,4,-2,1.0,5,5,4,4,1.0
29,38,w2b4a70d,Small,0.0,2722.0,0,3,4,choice,2,1,0.0,5,5,2,2,0.0
30,40,w2b4a70d,Large,0.0,3200.0,1,1,5,choice,2,-4,1.0,5,5,1,1,2.0
31,41,w2b4a70d,Solid,1.0,3730.0,0,2,5,choice,3,-1,-1.0,5,5,2,2,0.0
32,42,w2b4a70d,Object,1.0,4210.0,1,3,5,choice,4,3,1.0,5,5,4,4,1.0
33,43,w2b4a70d,Sea,0.0,2857.0,0,4,5,choice,1,1,-1.0,5,5,1,1,-1.0
34,44,w2b4a70d,Pattern,0.0,3598.0,0,1,6,choice,4,3,-1.0,4,4,2,2,-3.0
35,45,w2b4a70d,Large,0.0,4940.0,1,2,6,choice,2,-2,0.0,4,4,2,3,0.0
36,46,w2b4a70d,Land,1.0,2937.0,0,3,6,choice,3,-1,1.0,4,4,2,2,0.0
37,47,w2b4a70d,Object,,,0,4,6,choice,1,1,-1.0,4,4,1,1,-1.0
38,48,w2b4a70d,Animal,1.0,2905.0,1,1,7,choice,2,1,1.0,4,4,2,3,1.0
39,49,w2b4a70d,Small,0.0,2937.0,1,2,7,choice,1,-1,-1.0,4,4,1,2,-1.0
40,50,w2b4a70d,Sea,1.0,1145.0,1,3,7,choice,3,2,3.0,4,4,3,4,3.0
41,51,w2b4a70d,Pattern,0.0,2125.0,0,4,7,choice,4,5,-2.0,4,4,3,4,0.0
42,52,w8f710ed,Animal,1.0,3162.0,1,1,1,choice,3,1,3.0,4,4,2,2,2.0
43,53,w8f710ed,Solid,0.0,1378.0,1,2,1,choice,4,-4,-2.0,4,4,2,2,-1.0
44,55,w8f710ed,Land,1.0,4323.0,0,4,1,choice,2,-1,-1.0,4,4,2,2,-1.0
45,56,w8f710ed,Pattern,0.0,3917.0,1,1,2,choice,1,-1,-1.0,6,6,1,1,-1.0
46,57,w8f710ed,Land,1.0,3410.0,1,2,2,choice,2,1,1.0,6,6,2,2,1.0
47,58,w8f710ed,Object,1.0,1994.0,1,3,2,choice,4,2,2.0,6,6,4,4,2.0
48,59,w8f710ed,Small,0.0,1351.0,1,4,2,choice,3,-3,-3.0,6,6,3,3,-3.0
49,60,w8f710ed,Large,0.0,6165.0,0,1,3,choice,2,2,-2.0,5,5,1,1,-1.0
50,61,w8f710ed,Object,1.0,2342.0,1,2,3,choice,4,3,-1.0,5,5,3,3,0.0
51,62,w8f710ed,Solid,0.0,1119.0,1,3,3,choice,3,-2,-3.0,5,5,2,3,-2.0
52,63,w8f710ed,Land,1.0,3795.0,0,4,3,choice,1,-2,-1.0,5,5,1,1,-1.0
53,64,w8f710ed,Pattern,1.0,1262.0,1,1,4,choice,4,4,3.0,6,6,4,4,3.0
54,65,w8f710ed,Sea,0.0,1613.0,1,2,4,choice,3,-1,-1.0,6,6,3,3,-1.0
55,66,w8f710ed,Large,1.0,1794.0,1,3,4,choice,2,3,3.0,6,6,2,2,3.0
56,67,w8f710ed,Animal,0.0,3242.0,0,4,4,choice,1,1,1.0,6,6,1,1,1.0
57,68,w8f710ed,Object,0.0,6391.0,1,1,5,choice,3,-1,-1.0,6,6,3,3,-1.0
58,69,w8f710ed,Pattern,0.0,2983.0,1,2,5,choice,4,-2,-2.0,6,6,4,4,-2.0
59,70,w8f710ed,Sea,1.0,1072.0,1,3,5,choice,2,3,3.0,6,6,2,2,3.0
60,71,w8f710ed,Large,0.0,1967.0,1,4,5,choice,1,-1,-1.0,6,6,1,1,-1.0
61,72,w8f710ed,Object,,,0,1,6,choice,1,-1,-1.0,4,4,1,2,-1.0
62,73,w8f710ed,Land,1.0,4294.0,0,2,6,choice,3,-1,-1.0,4,4,2,3,0.0
63,74,w8f710ed,Small,1.0,3704.0,1,3,6,choice,2,4,1.0,4,4,2,3,1.0
64,75,w8f710ed,Pattern,1.0,1896.0,1,4,6,choice,4,5,1.0,4,4,2,3,1.0
65,76,w8f710ed,Animal,1.0,1238.0,1,1,7,choice,3,3,3.0,3,3,1,2,2.0
66,77,w8f710ed,Small,1.0,6277.0,1,2,7,choice,4,1,1.0,3,3,1,2,-1.0
67,78,w8f710ed,Solid,0.0,1576.0,1,3,7,choice,2,-2,-2.0,3,3,1,1,-1.0
68,80,wd697686,Land,1.0,6799.0,1,1,1,choice,1,2,1.0,3,3,1,4,1.0
69,81,wd697686,Solid,1.0,7056.0,1,2,1,choice,4,1,0.0,3,3,2,3,-1.0
70,82,wd697686,Large,1.0,2630.0,1,3,1,choice,2,4,4.0,3,3,1,2,2.0
71,83,wd697686,Animal,0.0,771.0,1,4,1,choice,3,-2,1.0,3,3,2,2,-1.0
72,85,wd697686,Large,,,0,2,2,choice,3,1,1.0,4,4,3,3,1.0
73,86,wd697686,Solid,0.0,955.0,1,3,2,choice,4,-3,-2.0,4,4,3,3,-1.0
74,87,wd697686,Animal,0.0,653.0,1,4,2,choice,2,-1,-1.0,4,4,2,2,-1.0
75,88,wd697686,Small,0.0,3049.0,1,1,3,choice,3,-1,-1.0,5,5,2,2,1.0
76,89,wd697686,Solid,1.0,2168.0,1,2,3,choice,1,2,2.0,5,5,1,1,2.0
77,90,wd697686,Sea,0.0,2843.0,0,3,3,choice,4,2,1.0,5,5,4,4,1.0
78,91,wd697686,Object,1.0,2854.0,1,4,3,choice,2,4,4.0,5,5,2,2,4.0
79,93,wd697686,Pattern,0.0,1485.0,1,2,4,choice,4,-1,2.0,3,3,3,4,0.0
80,94,wd697686,Land,0.0,611.0,0,3,4,choice,2,3,3.0,3,3,1,2,1.0
81,95,wd697686,Small,0.0,1469.0,1,4,4,choice,3,-3,0.0,3,3,2,2,2.0
82,96,wd697686,Pattern,1.0,2680.0,1,1,5,choice,4,1,2.0,2,2,1,1,2.0
83,98,wd697686,Small,0.0,528.0,1,3,5,choice,3,-1,0.0,2,2,1,1,2.0
84,99,wd697686,Animal,1.0,899.0,0,4,5,choice,2,-1,1.0,2,2,2,2,1.0
85,100,wd697686,Small,1.0,775.0,0,1,6,choice,4,-4,-3.0,3,3,2,2,0.0
86,101,wd697686,Object,0.0,1787.0,1,2,6,choice,3,-2,-5.0,3,3,1,1,-2.0
87,102,wd697686,Pattern,0.0,992.0,0,3,6,choice,2,2,-1.0,3,3,1,1,1.0
88,105,wd697686,Sea,0.0,584.0,1,2,7,choice,4,-3,-3.0,1,1,1,2,2.0
89,106,wd697686,Large,1.0,823.0,1,3,7,choice,3,6,6.0,1,1,1,1,2.0
90,109,w31bcaa3,Animal,1.0,1495.0,1,2,1,choice,4,1,3.0,3,3,1,2,-1.0
91,110,w31bcaa3,Large,1.0,1667.0,0,3,1,choice,2,-3,3.0,3,3,1,3,2.0
92,111,w31bcaa3,Land,1.0,3001.0,0,4,1,choice,3,-5,4.0,3,3,1,2,2.0
93,112,w31bcaa3,Animal,0.0,2540.0,0,1,2,choice,4,1,1.0,3,3,2,3,0.0
94,113,w31bcaa3,Sea,1.0,2564.0,1,2,2,choice,2,2,3.0,3,3,1,3,1.0
95,114,w31bcaa3,Small,0.0,3642.0,0,3,2,choice,3,2,3.0,3,3,1,3,-1.0
96,115,w31bcaa3,Pattern,1.0,1740.0,0,4,2,choice,1,-1,-1.0,3,3,1,3,-1.0
97,116,w31bcaa3,Pattern,0.0,2806.0,1,1,3,choice,3,-1,-1.0,4,4,3,4,-1.0
98,117,w31bcaa3,Land,0.0,4245.0,1,2,3,choice,2,-4,-4.0,4,4,1,3,-2.0
99,118,w31bcaa3,Large,1.0,2304.0,1,3,3,choice,1,2,2.0,4,4,1,3,2.0
100,119,w31bcaa3,Object,1.0,1490.0,0,4,3,choice,4,-1,-1.0,4,4,3,3,1.0
101,120,w31bcaa3,Small,0.0,2039.0,0,1,4,choice,2,3,3.0,5,5,2,3,3.0
102,121,w31bcaa3,Animal,1.0,2313.0,1,2,4,choice,4,3,3.0,5,5,3,3,5.0
103,122,w31bcaa3,Solid,1.0,2686.0,1,3,4,choice,3,2,2.0,5,5,3,4,2.0
104,123,w31bcaa3,Land,0.0,3679.0,1,4,4,choice,1,-1,-1.0,5,5,1,1,-1.0
105,124,w31bcaa3,Sea,0.0,2290.0,1,1,5,choice,1,-2,-1.0,4,4,1,3,-1.0
106,125,w31bcaa3,Large,0.0,2620.0,1,2,5,choice,2,-1,-3.0,4,4,1,2,-2.0
107,126,w31bcaa3,Solid,1.0,2506.0,1,3,5,choice,3,4,2.0,4,4,1,3,2.0
108,127,w31bcaa3,Object,1.0,2874.0,0,4,5,choice,4,-3,-2.0,4,4,4,4,-2.0
109,128,w31bcaa3,Land,1.0,2853.0,1,1,6,choice,3,1,4.0,4,4,2,4,2.0
110,129,w31bcaa3,Large,1.0,1954.0,0,2,6,choice,2,-1,2.0,4,4,2,2,2.0
111,130,w31bcaa3,Pattern,1.0,1052.0,1,3,6,choice,4,3,3.0,4,4,3,4,1.0
112,131,w31bcaa3,Object,0.0,1272.0,1,4,6,choice,1,-1,-2.0,4,4,1,2,-2.0
113,132,w31bcaa3,Small,0.0,1120.0,1,1,7,choice,1,-1,-1.0,4,4,1,3,-1.0
114,133,w31bcaa3,Pattern,1.0,1376.0,1,2,7,choice,4,1,1.0,4,4,3,4,0.0
115,134,w31bcaa3,Animal,1.0,1828.0,1,3,7,choice,2,1,1.0,4,4,2,3,1.0
116,135,w31bcaa3,Sea,0.0,1605.0,0,4,7,choice,3,2,2.0,4,4,2,4,1.0
117,137,wd3f2678,Sea,1.0,5540.0,1,2,1,choice,3,1,3.0,2,2,1,1,2.0
118,139,wd3f2678,Object,1.0,3442.0,0,4,1,choice,4,-1,2.0,2,2,2,3,1.0
119,141,wd3f2678,Solid,0.0,1598.0,1,2,2,choice,4,-1,-1.0,2,2,1,1,-2.0
120,146,wd3f2678,Pattern,1.0,3750.0,1,3,3,choice,3,1,-2.0,1,1,1,3,1.0
121,150,wd3f2678,Pattern,0.0,1957.0,0,3,4,choice,3,1,-2.0,1,1,1,2,1.0
122,152,wd3f2678,Large,1.0,1689.0,0,1,5,choice,4,-1,-1.0,4,4,3,3,-2.0
123,153,wd3f2678,Object,0.0,1602.0,1,2,5,choice,3,-2,-2.0,4,4,2,2,-3.0
124,155,wd3f2678,Land,0.0,1618.0,1,4,5,choice,2,-1,-4.0,4,4,1,1,-2.0
125,156,wd3f2678,Pattern,0.0,2351.0,1,1,6,choice,2,-3,-4.0,4,4,1,1,-2.0
126,157,wd3f2678,Land,1.0,1932.0,0,2,6,choice,4,-3,-4.0,4,4,2,2,-4.0
127,158,wd3f2678,Object,1.0,3306.0,1,3,6,choice,3,3,-2.0,4,4,2,2,-4.0
128,159,wd3f2678,Small,1.0,1632.0,1,4,6,choice,1,2,1.0,4,4,1,1,1.0
129,161,wd3f2678,Object,1.0,1641.0,0,2,7,choice,3,-4,0.0,2,2,1,1,1.0
130,163,wd3f2678,Small,0.0,2677.0,0,4,7,choice,4,1,1.0,2,2,1,1,1.0
131,165,w970a2f0,Animal,1.0,1306.0,1,2,1,choice,3,1,0.0,6,6,1,1,0.0
132,168,w970a2f0,Animal,,,0,1,2,choice,2,-4,0.0,5,5,2,3,0.0
133,169,w970a2f0,Sea,1.0,4526.0,1,2,2,choice,1,2,0.0,5,5,1,1,0.0
134,170,w970a2f0,Large,1.0,2072.0,1,3,2,choice,3,1,0.0,5,5,3,4,0.0
135,171,w970a2f0,Pattern,1.0,2231.0,1,4,2,choice,4,3,0.0,5,5,3,3,0.0
136,175,w970a2f0,Sea,1.0,1168.0,1,4,3,choice,3,2,0.0,1,1,1,1,0.0
137,176,w970a2f0,Object,1.0,2814.0,0,1,4,choice,2,-1,0.0,3,3,1,2,0.0
138,178,w970a2f0,Solid,1.0,1209.0,0,3,4,choice,3,-3,0.0,3,3,1,2,0.0
139,179,w970a2f0,Large,0.0,3087.0,1,4,4,choice,4,-1,0.0,3,3,2,3,0.0
140,180,wbc9e827,Animal,1.0,5069.0,0,1,1,choice,4,-2,2.0,4,4,3,5,3.0
141,181,wbc9e827,Solid,,,0,2,1,choice,1,-2,2.0,4,4,1,3,2.0
142,182,wbc9e827,Land,1.0,2283.0,1,3,1,choice,3,3,3.0,4,4,3,4,3.0
143,183,wbc9e827,Large,0.0,2411.0,0,4,1,choice,2,1,1.0,4,4,2,4,1.0
144,184,wbc9e827,Animal,1.0,1938.0,1,1,2,choice,4,4,4.0,5,5,3,4,3.0
145,185,wbc9e827,Sea,0.0,1322.0,1,2,2,choice,2,-3,-3.0,5,5,2,2,-3.0
146,186,wbc9e827,Small,1.0,967.0,1,3,2,choice,3,2,2.0,5,5,3,3,2.0
147,187,wbc9e827,Pattern,1.0,4913.0,1,4,2,choice,1,2,2.0,5,5,1,2,2.0
148,188,wbc9e827,Object,0.0,2534.0,1,1,3,choice,4,-1,-1.0,5,5,3,3,-2.0
149,189,wbc9e827,Pattern,0.0,1536.0,1,2,3,choice,3,-1,1.0,5,5,3,3,1.0
150,190,wbc9e827,Large,0.0,885.0,1,3,3,choice,1,-1,-1.0,5,5,1,2,-1.0
151,191,wbc9e827,Land,1.0,1099.0,1,4,3,choice,2,2,2.0,5,5,1,1,1.0
152,192,wbc9e827,Animal,1.0,1290.0,1,1,4,choice,4,2,1.0,6,6,4,4,1.0
153,193,wbc9e827,Solid,1.0,835.0,1,2,4,choice,3,6,5.0,6,6,3,3,5.0
154,194,wbc9e827,Land,0.0,2275.0,1,3,4,choice,1,-1,-1.0,6,6,1,1,-1.0
155,195,wbc9e827,Small,0.0,1288.0,0,4,4,choice,2,1,0.0,6,6,2,2,0.0
156,196,wbc9e827,Sea,0.0,1642.0,0,1,5,choice,1,1,1.0,5,5,1,1,1.0
157,197,wbc9e827,Object,1.0,2038.0,0,2,5,choice,4,-1,-1.0,5,5,3,3,1.0
158,198,wbc9e827,Large,0.0,807.0,1,3,5,choice,2,-4,-3.0,5,5,2,2,-3.0
159,199,wbc9e827,Solid,1.0,2165.0,1,4,5,choice,3,1,3.0,5,5,3,3,3.0
160,200,wbc9e827,Object,1.0,1628.0,1,1,6,choice,1,2,1.0,5,5,1,2,1.0
161,201,wbc9e827,Land,0.0,2000.0,1,2,6,choice,3,-2,-2.0,5,5,2,2,0.0
162,202,wbc9e827,Large,0.0,1755.0,1,3,6,choice,2,-1,-3.0,5,5,1,1,-1.0
163,203,wbc9e827,Pattern,1.0,767.0,1,4,6,choice,4,4,2.0,5,5,4,4,2.0
164,204,wbc9e827,Small,0.0,1033.0,1,1,7,choice,1,-2,-2.0,5,5,1,1,-2.0
165,205,wbc9e827,Sea,1.0,2146.0,1,2,7,choice,3,4,2.0,5,5,3,3,2.0
166,206,wbc9e827,Animal,0.0,1588.0,1,3,7,choice,2,-1,-1.0,5,5,2,3,-1.0
167,207,wbc9e827,Pattern,0.0,1487.0,1,4,7,choice,4,-1,-1.0,5,5,4,5,-1.0
168,208,we368c94,Small,1.0,2563.0,1,1,1,choice,1,2,1.0,5,5,1,2,1.0
169,209,we368c94,Land,0.0,3806.0,1,2,1,choice,2,-4,-4.0,5,5,2,3,-4.0
170,210,we368c94,Animal,0.0,1954.0,1,3,1,choice,3,-2,-1.0,5,5,3,4,-1.0
171,211,we368c94,Solid,1.0,2382.0,0,4,1,choice,4,-1,-1.0,5,5,4,5,-1.0
172,212,we368c94,Small,1.0,3074.0,1,1,2,choice,3,2,2.0,6,6,3,3,2.0
173,213,we368c94,Object,1.0,3323.0,0,2,2,choice,4,-4,3.0,6,6,4,4,3.0
174,214,we368c94,Land,0.0,3624.0,1,3,2,choice,2,-3,0.0,6,6,2,2,0.0
175,215,we368c94,Pattern,1.0,4259.0,0,4,2,choice,1,-1,-1.0,6,6,1,1,-1.0
176,216,we368c94,Object,0.0,951.0,0,1,3,choice,4,1,4.0,5,5,3,3,2.0
177,217,we368c94,Large,1.0,4967.0,0,2,3,choice,2,-2,1.0,5,5,1,2,-1.0
178,218,we368c94,Land,0.0,2143.0,0,3,3,choice,1,1,1.0,5,5,1,1,1.0
179,219,we368c94,Solid,1.0,2654.0,1,4,3,choice,3,2,5.0,5,5,2,3,3.0
180,220,we368c94,Pattern,0.0,1601.0,1,1,4,choice,4,-1,-1.0,6,6,4,4,-1.0
181,221,we368c94,Animal,1.0,851.0,1,2,4,choice,1,1,1.0,6,6,1,1,1.0
182,222,we368c94,Sea,1.0,2582.0,1,3,4,choice,3,5,4.0,6,6,3,3,4.0
183,223,we368c94,Large,0.0,3070.0,1,4,4,choice,2,-1,-1.0,6,6,2,2,-1.0
184,224,we368c94,Sea,1.0,1792.0,1,1,5,choice,2,1,1.0,6,6,2,2,1.0
185,225,we368c94,Object,0.0,855.0,1,2,5,choice,3,-2,-2.0,6,6,3,3,-2.0
186,226,we368c94,Pattern,1.0,1925.0,1,3,5,choice,4,2,2.0,6,6,4,4,2.0
187,227,we368c94,Large,0.0,3328.0,1,4,5,choice,1,-2,-2.0,6,6,1,1,-2.0
188,228,we368c94,Object,0.0,2034.0,0,1,6,choice,1,1,1.0,6,6,1,1,1.0
189,229,we368c94,Pattern,0.0,2220.0,0,2,6,choice,4,1,3.0,6,6,4,4,3.0
190,230,we368c94,Small,1.0,2224.0,0,3,6,choice,2,-2,0.0,6,6,2,2,0.0
191,231,we368c94,Land,0.0,1792.0,1,4,6,choice,3,-1,3.0,6,6,3,3,3.0
192,232,we368c94,Animal,0.0,2081.0,0,1,7,choice,3,2,1.0,6,6,3,3,1.0
193,233,we368c94,Solid,1.0,3846.0,1,2,7,choice,2,1,0.0,6,6,2,2,0.0
194,234,we368c94,Small,0.0,1750.0,1,3,7,choice,4,-3,-1.0,6,6,4,4,-1.0
195,235,we368c94,Sea,1.0,2180.0,0,4,7,choice,1,-2,-2.0,6,6,1,1,-2.0
196,236,wb900a5f,Animal,1.0,3001.0,0,1,1,choice,3,-5,-2.0,5,5,2,3,-1.0
197,237,wb900a5f,Land,0.0,1676.0,0,2,1,choice,2,1,-3.0,5,5,2,3,-3.0
198,238,wb900a5f,Small,1.0,2089.0,1,3,1,choice,1,2,1.0,5,5,1,2,1.0
199,239,wb900a5f,Solid,1.0,2247.0,1,4,1,choice,4,1,-1.0,5,5,4,4,-1.0
200,240,wb900a5f,Land,1.0,3210.0,1,1,2,choice,2,2,1.0,3,3,1,2,0.0
201,242,wb900a5f,Small,0.0,2399.0,1,3,2,choice,3,-2,4.0,3,3,1,1,1.0
202,243,wb900a5f,Object,1.0,3207.0,1,4,2,choice,4,1,0.0,3,3,2,3,1.0
203,244,wb900a5f,Object,1.0,1515.0,1,1,3,choice,4,3,2.0,3,3,2,3,1.0
204,245,wb900a5f,Large,0.0,2055.0,0,2,3,choice,2,1,4.0,3,3,1,4,2.0
205,246,wb900a5f,Solid,1.0,1161.0,1,3,3,choice,3,2,2.0,3,3,1,3,-1.0
206,248,wb900a5f,Sea,1.0,1337.0,0,1,4,choice,3,-1,1.0,2,2,1,3,-1.0
207,249,wb900a5f,Large,0.0,450.0,0,2,4,choice,2,4,-1.0,2,2,1,4,-2.0
208,250,wb900a5f,Pattern,1.0,635.0,1,3,4,choice,4,4,1.0,2,2,1,3,-2.0
209,252,wb900a5f,Pattern,1.0,1723.0,1,1,5,choice,4,2,1.0,5,5,3,4,0.0
210,253,wb900a5f,Object,0.0,727.0,0,2,5,choice,3,3,1.0,5,5,2,3,0.0
211,254,wb900a5f,Sea,0.0,975.0,1,3,5,choice,2,-2,1.0,5,5,2,3,1.0
212,255,wb900a5f,Large,1.0,501.0,1,4,5,choice,1,2,-1.0,5,5,1,2,-1.0
213,258,wb900a5f,Pattern,1.0,586.0,1,3,6,choice,4,2,-3.0,1,1,1,4,1.0
214,259,wb900a5f,Small,1.0,371.0,1,4,6,choice,2,1,0.0,1,1,1,4,1.0
215,261,wb900a5f,Animal,0.0,740.0,0,2,7,choice,3,2,-2.0,3,3,1,1,1.0
216,262,wb900a5f,Small,1.0,474.0,0,3,7,choice,4,-4,-4.0,3,3,1,2,1.0
217,263,wb900a5f,Solid,0.0,432.0,1,4,7,choice,2,-4,-1.0,3,3,1,1,1.0
218,264,w52f1872,Land,0.0,6213.0,0,1,1,choice,2,1,0.0,4,4,1,1,2.0
219,265,w52f1872,Small,0.0,6150.0,0,2,1,choice,1,2,-1.0,4,4,1,1,-1.0
220,266,w52f1872,Animal,1.0,3430.0,0,3,1,choice,3,-1,1.0,4,4,2,2,3.0
221,267,w52f1872,Solid,1.0,3163.0,1,4,1,choice,4,5,1.0,4,4,3,3,3.0
222,268,w52f1872,Pattern,0.0,1990.0,1,1,2,choice,1,-1,-1.0,6,6,1,1,-1.0
223,269,w52f1872,Land,0.0,1939.0,1,2,2,choice,2,-2,0.0,6,6,2,2,0.0
224,270,w52f1872,Object,1.0,4775.0,0,3,2,choice,4,-1,0.0,6,6,4,4,0.0
225,271,w52f1872,Small,1.0,2007.0,1,4,2,choice,3,2,2.0,6,6,3,3,2.0
226,272,w52f1872,Land,0.0,6409.0,0,1,3,choice,1,2,1.0,4,4,1,1,1.0
227,273,w52f1872,Solid,0.0,2376.0,1,2,3,choice,3,-2,-3.0,4,4,3,3,-3.0
228,274,w52f1872,Object,1.0,4385.0,0,3,3,choice,4,-3,-3.0,4,4,3,3,-2.0
229,275,w52f1872,Large,0.0,1129.0,1,4,3,choice,2,-3,-3.0,4,4,1,1,-2.0
230,276,w52f1872,Pattern,1.0,3137.0,1,1,4,choice,4,4,1.0,5,5,4,4,1.0
231,277,w52f1872,Sea,0.0,1988.0,1,2,4,choice,3,-1,-4.0,5,5,2,2,-2.0
232,278,w52f1872,Large,1.0,5153.0,1,3,4,choice,2,1,1.0,5,5,2,2,1.0
233,279,w52f1872,Animal,0.0,1791.0,1,4,4,choice,1,-1,-1.0,5,5,1,1,-1.0
234,280,w52f1872,Pattern,1.0,2648.0,1,1,5,choice,4,1,3.0,4,4,3,3,2.0
235,281,w52f1872,Sea,1.0,4359.0,1,2,5,choice,2,4,3.0,4,4,1,2,2.0
236,282,w52f1872,Object,1.0,2807.0,0,3,5,choice,3,-1,1.0,4,4,2,3,0.0
237,283,w52f1872,Large,0.0,971.0,0,4,5,choice,1,1,1.0,4,4,1,1,1.0
238,289,w8eb1000,Large,0.0,1636.0,1,2,1,choice,2,-3,-3.0,4,4,1,2,-1.0
239,290,w8eb1000,Animal,1.0,1004.0,1,3,1,choice,3,2,1.0,4,4,2,3,-1.0
240,291,w8eb1000,Solid,1.0,1440.0,1,4,1,choice,4,3,0.0,4,4,2,2,0.0
241,292,w8eb1000,Solid,1.0,6553.0,1,1,2,choice,4,1,2.0,5,5,3,3,0.0
242,293,w8eb1000,Animal,0.0,4865.0,0,2,2,choice,2,1,1.0,5,5,1,1,-1.0
243,294,w8eb1000,Large,0.0,5646.0,0,3,2,choice,3,3,3.0,5,5,2,2,1.0
244,295,w8eb1000,Sea,0.0,2239.0,1,4,2,choice,1,-1,-1.0,5,5,1,1,-1.0
245,296,w8eb1000,Solid,1.0,3806.0,0,1,3,choice,1,-2,-2.0,6,6,1,1,-2.0
246,297,w8eb1000,Sea,1.0,3337.0,1,2,3,choice,4,1,0.0,6,6,4,4,0.0
247,298,w8eb1000,Small,1.0,5836.0,1,3,3,choice,3,2,1.0,6,6,3,3,1.0
248,299,w8eb1000,Object,0.0,3751.0,1,4,3,choice,2,-3,-3.0,6,6,2,2,-3.0
249,300,w8eb1000,Pattern,0.0,4850.0,0,1,4,choice,4,1,-1.0,5,5,3,3,0.0
250,301,w8eb1000,Small,1.0,5192.0,1,2,4,choice,3,3,2.0,5,5,2,2,3.0
251,302,w8eb1000,Land,0.0,6812.0,1,3,4,choice,2,-2,-3.0,5,5,1,1,-2.0
252,303,w8eb1000,Object,0.0,2596.0,1,4,4,choice,1,-1,-2.0,5,5,1,1,-2.0
253,304,w8eb1000,Small,0.0,6750.0,0,1,5,choice,3,3,-2.0,5,5,3,3,-2.0
254,305,w8eb1000,Land,1.0,6079.0,0,2,5,choice,1,-1,-2.0,5,5,1,1,-2.0
255,306,w8eb1000,Pattern,0.0,4742.0,0,3,5,choice,4,1,-1.0,5,5,3,3,-2.0
256,307,w8eb1000,Animal,1.0,2601.0,1,4,5,choice,2,4,-3.0,5,5,2,2,-3.0
257,308,w8eb1000,Sea,0.0,6056.0,1,1,6,choice,1,-2,-2.0,5,5,1,1,-2.0
258,309,w8eb1000,Pattern,1.0,5008.0,1,2,6,choice,2,3,1.0,5,5,2,2,1.0
259,310,w8eb1000,Small,0.0,4664.0,1,3,6,choice,4,-1,-1.0,5,5,3,3,1.0
260,311,w8eb1000,Object,0.0,2814.0,1,4,6,choice,3,-2,-2.0,5,5,2,2,0.0
261,312,w8eb1000,Large,0.0,4948.0,1,1,7,choice,3,-1,-5.0,4,4,2,3,-3.0
262,313,w8eb1000,Animal,1.0,4792.0,1,2,7,choice,1,2,2.0,4,4,1,1,2.0
263,314,w8eb1000,Sea,1.0,3426.0,1,3,7,choice,4,4,3.0,4,4,2,3,4.0
264,315,w8eb1000,Pattern,1.0,3587.0,1,4,7,choice,2,1,1.0,4,4,2,3,1.0
265,317,w7606987,Animal,1.0,1758.0,0,2,1,choice,3,-1,-1.0,3,3,2,3,0.0
266,318,w7606987,Solid,1.0,1433.0,1,3,1,choice,4,5,0.0,3,3,3,3,2.0
267,319,w7606987,Land,1.0,1007.0,1,4,1,choice,2,1,1.0,3,3,2,4,1.0
268,330,w7606987,Large,1.0,3054.0,1,3,4,choice,2,1,-1.0,3,3,1,2,-2.0
269,331,w7606987,Pattern,1.0,1664.0,1,4,4,choice,4,1,0.0,3,3,2,2,0.0
270,332,w7606987,Object,0.0,2777.0,1,1,5,choice,3,-3,-1.0,2,2,1,1,-1.0
271,333,w7606987,Pattern,0.0,1015.0,0,2,5,choice,4,2,-4.0,2,2,1,1,-1.0
272,334,w7606987,Large,1.0,2139.0,0,3,5,choice,1,-2,-1.0,2,2,1,1,-1.0
273,335,w7606987,Sea,1.0,2483.0,1,4,5,choice,2,1,1.0,2,2,1,1,2.0
274,339,w7606987,Land,1.0,2514.0,0,4,6,choice,3,-1,-1.0,1,1,1,1,2.0
275,342,w7606987,Animal,1.0,2406.0,1,3,7,choice,3,2,3.0,5,5,1,1,10.0
276,344,w84e06f3,Land,1.0,1849.0,1,1,1,choice,4,2,2.0,5,5,3,3,1.0
277,345,w84e06f3,Pattern,0.0,6484.0,1,2,1,choice,3,-1,-1.0,5,5,3,3,-1.0
278,346,w84e06f3,Small,,,0,3,1,choice,1,-2,-2.0,5,5,1,1,-2.0
279,347,w84e06f3,Object,1.0,3464.0,1,4,1,choice,2,2,2.0,5,5,1,1,1.0
280,348,w84e06f3,Solid,1.0,3876.0,1,1,2,choice,4,4,4.0,5,5,3,3,2.0
281,349,w84e06f3,Sea,0.0,4556.0,0,2,2,choice,2,1,1.0,5,5,2,2,1.0
282,350,w84e06f3,Object,1.0,6186.0,0,3,2,choice,1,-2,-2.0,5,5,1,1,-2.0
283,351,w84e06f3,Large,1.0,3993.0,1,4,2,choice,3,2,2.0,5,5,3,3,2.0
284,352,w84e06f3,Land,1.0,5726.0,1,1,3,choice,3,2,2.0,5,5,3,3,2.0
285,353,w84e06f3,Small,0.0,6308.0,1,2,3,choice,1,-1,-1.0,5,5,1,2,-1.0
286,354,w84e06f3,Pattern,0.0,4613.0,1,3,3,choice,2,-1,-1.0,5,5,1,2,1.0
287,355,w84e06f3,Animal,,,0,4,3,choice,4,1,1.0,5,5,3,4,3.0
288,356,w84e06f3,Large,0.0,2304.0,1,1,4,choice,3,-2,-2.0,5,5,2,2,-3.0
289,357,w84e06f3,Land,0.0,6946.0,0,2,4,choice,1,1,1.0,5,5,1,2,1.0
290,358,w84e06f3,Object,0.0,5049.0,0,3,4,choice,4,1,-1.0,5,5,3,3,-2.0
291,359,w84e06f3,Pattern,1.0,1070.0,1,4,4,choice,2,2,2.0,5,5,1,1,1.0
292,360,w84e06f3,Animal,1.0,4529.0,1,1,5,choice,3,3,2.0,5,5,3,3,2.0
293,361,w84e06f3,Sea,0.0,5689.0,1,2,5,choice,2,-3,-2.0,5,5,2,2,-2.0
294,362,w84e06f3,Pattern,0.0,3808.0,1,3,5,choice,1,-2,-1.0,5,5,1,1,-1.0
295,363,w84e06f3,Small,1.0,1127.0,1,4,5,choice,4,1,2.0,5,5,4,4,2.0
296,364,w84e06f3,Large,1.0,2692.0,0,1,6,choice,2,-4,-3.0,4,4,1,1,-2.0
297,366,w84e06f3,Sea,0.0,2679.0,0,3,6,choice,3,1,-2.0,4,4,2,2,-3.0
298,367,w84e06f3,Animal,1.0,2458.0,1,4,6,choice,4,3,1.0,4,4,2,2,1.0
299,369,w84e06f3,Solid,0.0,3895.0,1,2,7,choice,2,-3,-3.0,5,5,2,2,-3.0
300,370,w84e06f3,Land,1.0,1539.0,1,3,7,choice,3,1,1.0,5,5,2,2,0.0
301,371,w84e06f3,Small,0.0,2653.0,1,4,7,choice,4,-1,-1.0,5,5,3,4,-2.0
302,412,we2b50c8,Solid,1.0,2830.0,0,1,1,choice,2,-1,0.0,4,4,2,2,0.0
303,414,we2b50c8,Sea,1.0,4339.0,0,3,1,choice,3,-1,-3.0,4,4,2,2,-1.0
304,415,we2b50c8,Object,1.0,3995.0,1,4,1,choice,4,1,-2.0,4,4,2,2,-1.0
305,416,we2b50c8,Solid,,,0,1,2,choice,4,-1,-3.0,3,3,3,3,-1.0
306,417,we2b50c8,Large,0.0,251.0,1,2,2,choice,1,-1,-1.0,3,3,1,2,-1.0
307,418,we2b50c8,Animal,1.0,914.0,1,3,2,choice,3,2,2.0,3,3,2,2,1.0
308,419,we2b50c8,Sea,0.0,3642.0,1,4,2,choice,2,-2,-3.0,3,3,2,3,-3.0
309,420,we2b50c8,Pattern,0.0,4274.0,0,1,3,choice,3,2,-1.0,4,4,2,2,0.0
310,421,we2b50c8,Land,0.0,2776.0,1,2,3,choice,1,-1,-1.0,4,4,1,3,-1.0
311,422,we2b50c8,Animal,1.0,1126.0,1,3,3,choice,2,3,3.0,4,4,2,3,3.0
312,423,we2b50c8,Large,1.0,2005.0,1,4,3,choice,4,1,1.0,4,4,4,4,1.0
313,424,we2b50c8,Pattern,0.0,3930.0,1,1,4,choice,3,-1,-1.0,2,2,1,2,-1.0
314,426,we2b50c8,Animal,0.0,2035.0,1,3,4,choice,4,-1,-1.0,2,2,1,2,-2.0
315,429,we2b50c8,Large,1.0,1102.0,0,2,5,choice,4,-1,-3.0,3,3,3,4,-5.0
316,430,we2b50c8,Land,0.0,2588.0,0,3,5,choice,2,2,-1.0,3,3,1,2,-2.0
317,431,we2b50c8,Object,1.0,1719.0,1,4,5,choice,3,1,-1.0,3,3,2,2,-3.0
318,433,we2b50c8,Land,0.0,1821.0,1,2,6,choice,4,-5,-3.0,1,1,1,2,-2.0
319,436,we2b50c8,Solid,0.0,3334.0,0,1,7,choice,2,2,0.0,4,4,2,2,0.0
320,437,we2b50c8,Land,1.0,1513.0,1,2,7,choice,1,1,-1.0,4,4,1,1,-1.0
321,438,we2b50c8,Small,1.0,3059.0,0,3,7,choice,4,-2,-1.0,4,4,3,3,-2.0
322,439,we2b50c8,Object,0.0,3817.0,1,4,7,choice,3,-2,-5.0,4,4,3,3,-5.0
323,440,w4077e51,Land,,,0,1,1,choice,3,2,2.0,3,3,2,4,3.0
324,441,w4077e51,Large,0.0,3395.0,0,2,1,choice,2,4,3.0,3,3,2,3,3.0
325,443,w4077e51,Animal,0.0,1808.0,1,4,1,choice,4,-1,-3.0,3,3,1,2,1.0
326,444,w4077e51,Pattern,1.0,2762.0,0,1,2,choice,1,-2,-1.0,5,5,1,2,-1.0
327,445,w4077e51,Animal,0.0,6433.0,0,2,2,choice,4,1,1.0,5,5,3,4,0.0
328,446,w4077e51,Small,0.0,1191.0,1,3,2,choice,3,-4,-4.0,5,5,3,4,-4.0
329,447,w4077e51,Sea,1.0,1340.0,1,4,2,choice,2,1,-1.0,5,5,1,2,-2.0
330,448,w4077e51,Pattern,1.0,1208.0,1,1,3,choice,3,2,1.0,5,5,3,3,1.0
331,449,w4077e51,Object,0.0,5571.0,1,2,3,choice,4,-3,-2.0,5,5,3,3,-1.0
332,450,w4077e51,Land,1.0,1647.0,0,3,3,choice,2,-1,1.0,5,5,1,2,2.0
333,451,w4077e51,Large,0.0,1163.0,1,4,3,choice,1,-1,-2.0,5,5,1,1,-2.0
334,452,w4077e51,Solid,1.0,2250.0,1,1,4,choice,3,1,4.0,4,4,2,3,3.0
335,453,w4077e51,Land,1.0,1119.0,1,2,4,choice,1,1,2.0,4,4,1,2,2.0
336,454,w4077e51,Small,0.0,1432.0,1,3,4,choice,2,-3,0.0,4,4,1,3,-1.0
337,455,w4077e51,Animal,1.0,2248.0,0,4,4,choice,4,-4,3.0,4,4,2,3,0.0
338,456,w4077e51,Large,0.0,4194.0,1,1,5,choice,2,-1,-1.0,5,5,2,2,-1.0
339,457,w4077e51,Solid,1.0,1467.0,1,2,5,choice,3,1,1.0,5,5,2,3,0.0
340,458,w4077e51,Sea,1.0,5172.0,1,3,5,choice,1,2,2.0,5,5,1,2,2.0
341,459,w4077e51,Object,1.0,1148.0,0,4,5,choice,4,-3,-2.0,5,5,4,4,-2.0
342,460,w4077e51,Large,0.0,1332.0,1,1,6,choice,2,-4,-4.0,3,3,2,3,-4.0
343,462,w4077e51,Pattern,1.0,1076.0,1,3,6,choice,4,3,2.0,3,3,2,4,0.0
344,463,w4077e51,Land,0.0,1691.0,1,4,6,choice,3,-2,-2.0,3,3,3,6,-2.0
345,464,w4077e51,Small,1.0,3222.0,0,1,7,choice,1,-1,-1.0,4,4,1,2,-1.0
346,465,w4077e51,Sea,0.0,2606.0,0,2,7,choice,3,2,-3.0,4,4,2,3,-2.0
347,466,w4077e51,Pattern,1.0,742.0,0,3,7,choice,4,-2,-5.0,4,4,3,4,-4.0
348,467,w4077e51,Animal,1.0,3919.0,0,4,7,choice,2,-2,-2.0,4,4,1,3,-1.0
349,468,w44b0e2d,Land,,,0,1,1,choice,4,-1,3.0,6,6,4,4,3.0
350,469,w44b0e2d,Small,1.0,7472.0,1,2,1,choice,1,1,1.0,6,6,1,1,1.0
351,470,w44b0e2d,Object,0.0,5114.0,1,3,1,choice,2,-1,-1.0,6,6,2,2,-1.0
352,471,w44b0e2d,Pattern,1.0,5754.0,0,4,1,choice,3,-2,2.0,6,6,3,3,2.0
353,472,w44b0e2d,Solid,,,0,1,2,choice,4,-1,-1.0,5,5,3,3,1.0
354,473,w44b0e2d,Sea,1.0,3386.0,0,2,2,choice,2,-1,-1.0,5,5,1,1,1.0
355,474,w44b0e2d,Object,1.0,3862.0,1,3,2,choice,1,1,1.0,5,5,1,1,1.0
356,475,w44b0e2d,Large,0.0,1429.0,1,4,2,choice,3,-2,-2.0,5,5,2,3,0.0
357,476,w44b0e2d,Pattern,0.0,3631.0,0,1,3,choice,2,1,1.0,6,6,2,2,1.0
358,477,w44b0e2d,Animal,1.0,1197.0,1,2,3,choice,4,4,5.0,6,6,4,4,5.0
359,478,w44b0e2d,Small,1.0,3758.0,0,3,3,choice,1,-1,-1.0,6,6,1,1,-1.0
360,479,w44b0e2d,Land,1.0,2655.0,0,4,3,choice,3,-1,0.0,6,6,3,3,0.0
361,480,w44b0e2d,Object,0.0,3334.0,1,1,4,choice,4,-2,-5.0,5,5,3,3,-4.0
362,481,w44b0e2d,Land,0.0,4220.0,1,2,4,choice,1,-1,-1.0,5,5,1,2,-1.0
363,482,w44b0e2d,Pattern,0.0,1677.0,1,3,4,choice,2,-3,-3.0,5,5,2,2,-3.0
364,483,w44b0e2d,Large,0.0,1985.0,0,4,4,choice,3,1,-2.0,5,5,3,3,-2.0
365,484,w44b0e2d,Small,1.0,3258.0,1,1,5,choice,4,1,1.0,6,6,4,4,1.0
366,485,w44b0e2d,Pattern,0.0,2474.0,1,2,5,choice,1,-1,-1.0,6,6,1,1,-1.0
367,486,w44b0e2d,Animal,1.0,2254.0,1,3,5,choice,3,2,2.0,6,6,3,3,2.0
368,487,w44b0e2d,Sea,1.0,4288.0,0,4,5,choice,2,-3,-3.0,6,6,2,2,-3.0
369,488,w44b0e2d,Animal,0.0,1970.0,0,1,6,choice,4,3,-3.0,6,6,4,4,-3.0
370,489,w44b0e2d,Solid,1.0,2258.0,1,2,6,choice,1,1,1.0,6,6,1,1,1.0
371,490,w44b0e2d,Large,1.0,3967.0,0,3,6,choice,2,-2,-2.0,6,6,2,2,-2.0
372,491,w44b0e2d,Sea,0.0,789.0,0,4,6,choice,3,2,-2.0,6,6,3,3,-2.0
373,492,w44b0e2d,Animal,1.0,2621.0,1,1,7,choice,1,2,2.0,6,6,1,1,2.0
374,493,w44b0e2d,Land,1.0,3835.0,1,2,7,choice,3,2,2.0,6,6,3,3,2.0
375,494,w44b0e2d,Small,0.0,2737.0,0,3,7,choice,4,2,2.0,6,6,4,4,2.0
376,495,w44b0e2d,Solid,1.0,3178.0,0,4,7,choice,2,-1,-1.0,6,6,2,2,-1.0
377,496,we6483ae,Object,1.0,4880.0,1,1,1,choice,4,1,-2.0,4,4,4,5,-2.0
378,497,we6483ae,Solid,1.0,2352.0,0,2,1,choice,2,-1,1.0,4,4,1,1,-1.0
379,498,we6483ae,Sea,1.0,2041.0,0,3,1,choice,3,-1,-1.0,4,4,3,3,-1.0
380,499,we6483ae,Large,1.0,3126.0,0,4,1,choice,1,-1,-2.0,4,4,1,2,-2.0
381,500,we6483ae,Sea,1.0,4144.0,1,1,2,choice,2,2,2.0,4,4,2,2,2.0
382,501,we6483ae,Solid,1.0,1676.0,0,2,2,choice,4,-2,-1.0,4,4,2,2,2.0
383,502,we6483ae,Large,0.0,2337.0,0,3,2,choice,1,1,1.0,4,4,1,1,1.0
384,503,we6483ae,Animal,0.0,2809.0,1,4,2,choice,3,-3,-3.0,4,4,2,2,-1.0
385,504,we6483ae,Animal,0.0,792.0,1,1,3,choice,2,-3,-3.0,3,3,2,3,-3.0
386,505,we6483ae,Pattern,1.0,396.0,0,2,3,choice,3,-1,-2.0,3,3,2,5,-1.0
387,506,we6483ae,Large,0.0,354.0,0,3,3,choice,4,1,0.0,3,3,3,4,-2.0
388,509,we6483ae,Sea,1.0,1927.0,1,2,4,choice,2,4,-4.0,3,3,1,4,-2.0
389,510,we6483ae,Animal,1.0,780.0,0,3,4,choice,4,-3,1.0,3,3,2,3,0.0
390,511,we6483ae,Pattern,1.0,2329.0,1,4,4,choice,3,3,-1.0,3,3,2,3,-3.0
391,512,we6483ae,Object,1.0,3113.0,1,1,5,choice,3,2,2.0,6,6,3,3,2.0
392,513,we6483ae,Solid,1.0,1563.0,1,2,5,choice,1,2,2.0,6,6,1,1,2.0
393,514,we6483ae,Large,1.0,1477.0,1,3,5,choice,4,4,4.0,6,6,4,4,4.0
394,515,we6483ae,Land,0.0,4646.0,1,4,5,choice,2,-4,-2.0,6,6,2,2,-2.0
395,516,we6483ae,Pattern,0.0,1800.0,1,1,6,choice,2,-3,-3.0,4,4,2,4,-3.0
396,518,we6483ae,Land,0.0,1642.0,1,3,6,choice,4,-2,-4.0,4,4,3,4,-5.0
397,519,we6483ae,Object,1.0,1140.0,1,4,6,choice,3,1,2.0,4,4,2,2,1.0
398,520,we6483ae,Small,0.0,1916.0,0,1,7,choice,4,1,2.0,5,5,3,3,3.0
399,521,we6483ae,Object,1.0,2090.0,1,2,7,choice,3,3,2.0,5,5,2,3,3.0
400,522,we6483ae,Solid,1.0,1808.0,0,3,7,choice,2,-2,0.0,5,5,1,1,1.0
401,524,w37d3a90,Land,,,0,1,1,choice,2,4,3.0,3,3,1,4,2.0
402,526,w37d3a90,Animal,1.0,3251.0,0,3,1,choice,3,-1,-1.0,3,3,2,3,0.0
403,527,w37d3a90,Solid,0.0,5524.0,0,4,1,choice,4,1,0.0,3,3,3,4,-1.0
404,528,w37d3a90,Animal,1.0,3111.0,0,1,2,choice,2,-2,0.0,6,6,2,2,0.0
405,529,w37d3a90,Sea,1.0,4239.0,1,2,2,choice,1,1,1.0,6,6,1,1,1.0
406,530,w37d3a90,Pattern,0.0,6833.0,0,3,2,choice,4,2,2.0,6,6,4,4,2.0
407,531,w37d3a90,Large,0.0,3653.0,0,4,2,choice,3,1,1.0,6,6,3,3,1.0
408,532,w37d3a90,Sea,1.0,4404.0,1,1,3,choice,3,1,1.0,6,6,3,3,1.0
409,533,w37d3a90,Small,1.0,5277.0,1,2,3,choice,4,1,1.0,6,6,4,4,1.0
410,534,w37d3a90,Solid,1.0,6857.0,1,3,3,choice,2,3,3.0,6,6,2,2,3.0
411,535,w37d3a90,Animal,0.0,4861.0,1,4,3,choice,1,-1,-1.0,6,6,1,1,-1.0
412,536,w37d3a90,Solid,0.0,4034.0,0,1,4,choice,3,2,0.0,5,5,3,4,0.0
413,537,w37d3a90,Land,0.0,2728.0,1,2,4,choice,1,-1,-1.0,5,5,1,2,-1.0
414,538,w37d3a90,Large,0.0,3838.0,1,3,4,choice,4,-2,1.0,5,5,3,3,0.0
415,539,w37d3a90,Object,1.0,4026.0,1,4,4,choice,2,3,1.0,5,5,2,2,1.0
416,540,w37d3a90,Land,0.0,4158.0,0,1,5,choice,1,1,2.0,5,5,1,1,2.0
417,541,w37d3a90,Pattern,0.0,5106.0,0,2,5,choice,3,1,0.0,5,5,2,3,1.0
418,542,w37d3a90,Animal,1.0,6131.0,0,3,5,choice,4,-2,6.0,5,5,4,5,6.0
419,543,w37d3a90,Small,0.0,5571.0,1,4,5,choice,2,-3,0.0,5,5,2,3,0.0
420,544,w37d3a90,Solid,1.0,6439.0,1,1,6,choice,3,2,1.0,6,6,3,3,1.0
421,545,w37d3a90,Large,0.0,3728.0,1,2,6,choice,2,-2,0.0,6,6,2,2,0.0
422,546,w37d3a90,Land,0.0,5993.0,0,3,6,choice,4,1,2.0,6,6,4,4,2.0
423,547,w37d3a90,Object,0.0,6908.0,1,4,6,choice,1,-1,-1.0,6,6,1,1,-1.0
424,548,w37d3a90,Pattern,1.0,5619.0,1,1,7,choice,4,1,3.0,6,6,4,4,3.0
425,549,w37d3a90,Sea,0.0,6829.0,0,2,7,choice,1,1,1.0,6,6,1,1,1.0
426,550,w37d3a90,Object,0.0,5205.0,1,3,7,choice,3,-3,-1.0,6,6,3,3,-1.0
427,551,w37d3a90,Large,0.0,4866.0,0,4,7,choice,2,1,1.0,6,6,2,2,1.0
428,552,w108c7bf,Large,,,0,1,1,choice,2,-1,-1.0,5,5,2,2,-1.0
429,553,w108c7bf,Land,0.0,54.0,0,2,1,choice,3,1,1.0,5,5,3,3,1.0
430,555,w108c7bf,Animal,0.0,4591.0,1,4,1,choice,4,-4,-3.0,5,5,3,3,-2.0
431,556,w108c7bf,Sea,1.0,2340.0,0,1,2,choice,2,-1,-1.0,3,3,1,1,1.0
432,557,w108c7bf,Small,1.0,1692.0,1,2,2,choice,3,1,4.0,3,3,2,2,3.0
433,558,w108c7bf,Animal,1.0,3351.0,0,3,2,choice,4,-1,0.0,3,3,1,1,2.0
434,559,w108c7bf,Pattern,0.0,691.0,1,4,2,choice,1,-1,2.0,3,3,1,1,2.0
435,560,w108c7bf,Large,0.0,2451.0,0,1,3,choice,1,1,1.0,3,3,1,1,1.0
436,561,w108c7bf,Object,1.0,2101.0,1,2,3,choice,4,4,4.0,3,3,2,2,3.0
437,563,w108c7bf,Pattern,0.0,2342.0,1,4,3,choice,3,-2,-2.0,3,3,2,2,-1.0
438,564,w108c7bf,Small,1.0,1694.0,1,1,4,choice,2,3,3.0,5,5,2,2,3.0
439,565,w108c7bf,Animal,1.0,2833.0,0,2,4,choice,4,-1,0.0,5,5,3,3,2.0
440,566,w108c7bf,Solid,0.0,2909.0,1,3,4,choice,3,-3,-3.0,5,5,2,2,-1.0
441,567,w108c7bf,Land,1.0,3057.0,1,4,4,choice,1,1,1.0,5,5,1,1,1.0
442,568,w108c7bf,Large,0.0,1170.0,1,1,5,choice,2,-1,0.0,4,4,1,1,-1.0
443,569,w108c7bf,Solid,0.0,1932.0,1,2,5,choice,3,-3,-3.0,4,4,2,2,-4.0
444,570,w108c7bf,Object,1.0,2925.0,0,3,5,choice,4,-1,0.0,4,4,3,3,-1.0
445,572,w108c7bf,Pattern,1.0,2338.0,1,1,6,choice,4,3,3.0,5,5,3,3,1.0
446,573,w108c7bf,Object,0.0,2466.0,0,2,6,choice,1,1,1.0,5,5,1,1,1.0
447,574,w108c7bf,Land,0.0,2420.0,1,3,6,choice,3,-2,-2.0,5,5,3,3,-2.0
448,575,w108c7bf,Large,0.0,1769.0,1,4,6,choice,2,-4,-4.0,5,5,2,2,-4.0
449,576,w108c7bf,Pattern,0.0,2197.0,1,1,7,choice,4,-1,2.0,4,4,3,3,1.0
450,577,w108c7bf,Animal,1.0,1951.0,1,2,7,choice,2,2,2.0,4,4,1,1,1.0
451,578,w108c7bf,Sea,1.0,1982.0,1,3,7,choice,3,1,3.0,4,4,3,3,3.0
452,584,w2e6acfb,Animal,1.0,3608.0,0,1,2,choice,2,-3,-1.0,3,3,1,2,-2.0
453,585,w2e6acfb,Small,1.0,3410.0,1,2,2,choice,4,1,2.0,3,3,1,1,1.0
454,586,w2e6acfb,Sea,0.0,2114.0,1,3,2,choice,3,-1,-2.0,3,3,1,1,-2.0
455,587,w2e6acfb,Pattern,1.0,2250.0,0,4,2,choice,1,-1,1.0,3,3,1,1,1.0
456,588,w2e6acfb,Animal,1.0,2491.0,0,1,3,choice,3,-1,2.0,3,3,1,2,2.0
457,589,w2e6acfb,Sea,1.0,3636.0,1,2,3,choice,2,1,4.0,3,3,2,3,4.0
458,591,w2e6acfb,Large,1.0,1541.0,0,4,3,choice,4,-3,0.0,3,3,2,2,0.0
459,592,w2e6acfb,Large,0.0,2214.0,0,1,4,choice,4,2,0.0,4,4,3,3,-1.0
460,594,w2e6acfb,Sea,1.0,1811.0,0,3,4,choice,3,-1,-1.0,4,4,3,5,-1.0
461,595,w2e6acfb,Object,1.0,1991.0,1,4,4,choice,2,2,0.0,4,4,2,4,0.0
462,596,w2e6acfb,Object,1.0,4937.0,1,1,5,choice,4,1,6.0,1,1,1,2,1.0
463,598,w2e6acfb,Pattern,0.0,3706.0,0,3,5,choice,2,2,2.0,1,1,1,5,1.0
464,599,w2e6acfb,Large,0.0,1962.0,0,4,5,choice,1,1,1.0,1,1,1,3,1.0
465,600,w2e6acfb,Land,0.0,1411.0,1,1,6,choice,4,-1,3.0,4,4,3,3,2.0
466,601,w2e6acfb,Object,1.0,1068.0,1,2,6,choice,1,1,1.0,4,4,1,2,1.0
467,602,w2e6acfb,Solid,0.0,2349.0,0,3,6,choice,3,2,5.0,4,4,2,3,4.0
468,603,w2e6acfb,Small,1.0,1006.0,0,4,6,choice,2,-1,2.0,4,4,1,3,1.0
469,604,w2e6acfb,Animal,0.0,2163.0,1,1,7,choice,4,-1,0.0,6,6,4,4,0.0
470,605,w2e6acfb,Land,0.0,3546.0,0,2,7,choice,1,2,-1.0,6,6,1,1,-1.0
471,606,w2e6acfb,Large,1.0,756.0,0,3,7,choice,3,-3,1.0,6,6,3,3,1.0
472,607,w2e6acfb,Solid,1.0,1005.0,0,4,7,choice,2,-1,3.0,6,6,2,2,3.0
473,608,w496515d,Animal,0.0,6246.0,0,1,1,choice,3,2,1.0,2,2,1,2,-1.0
474,609,w496515d,Solid,1.0,3483.0,1,2,1,choice,4,3,2.0,2,2,1,2,1.0
475,610,w496515d,Large,0.0,3497.0,1,3,1,choice,2,-2,0.0,2,2,1,2,1.0
476,612,w496515d,Large,,,0,1,2,choice,3,-3,0.0,5,5,2,2,-1.0
477,613,w496515d,Solid,1.0,1602.0,1,2,2,choice,4,1,4.0,5,5,3,3,3.0
478,614,w496515d,Sea,1.0,5179.0,1,3,2,choice,1,1,1.0,5,5,1,2,1.0
479,615,w496515d,Animal,1.0,940.0,0,4,2,choice,2,-1,-1.0,5,5,1,2,-2.0
480,616,w496515d,Solid,1.0,2318.0,0,1,3,choice,1,-2,-1.0,4,4,1,2,-1.0
481,617,w496515d,Sea,1.0,2932.0,0,2,3,choice,4,-3,0.0,4,4,3,3,1.0
482,618,w496515d,Small,1.0,1592.0,1,3,3,choice,3,2,1.0,4,4,1,2,1.0
483,619,w496515d,Object,1.0,3297.0,0,4,3,choice,2,-1,0.0,4,4,2,4,0.0
484,620,w496515d,Land,1.0,3207.0,0,1,4,choice,2,-2,0.0,3,3,1,2,-1.0
485,621,w496515d,Small,0.0,2084.0,1,2,4,choice,3,-1,1.0,3,3,2,4,0.0
486,622,w496515d,Object,1.0,3180.0,0,3,4,choice,1,-1,-1.0,3,3,1,3,-1.0
487,623,w496515d,Pattern,0.0,1912.0,0,4,4,choice,4,1,-1.0,3,3,2,4,-2.0
488,624,w496515d,Land,1.0,2531.0,1,1,5,choice,1,1,-1.0,3,3,1,3,-1.0
489,625,w496515d,Pattern,1.0,4509.0,1,2,5,choice,4,1,0.0,3,3,3,6,-1.0
490,626,w496515d,Small,1.0,2059.0,0,3,5,choice,3,-1,-1.0,3,3,3,4,-1.0
491,627,w496515d,Animal,1.0,1896.0,0,4,5,choice,2,-2,-2.0,3,3,1,3,-1.0
492,628,w496515d,Small,1.0,2095.0,0,1,6,choice,4,-4,3.0,2,2,2,4,0.0
493,629,w496515d,Pattern,0.0,793.0,0,2,6,choice,2,1,2.0,2,2,1,4,1.0
494,631,w496515d,Object,1.0,872.0,0,4,6,choice,3,-5,2.0,2,2,2,3,0.0
495,632,w496515d,Sea,1.0,1524.0,1,1,7,choice,4,3,3.0,5,5,4,4,3.0
496,633,w496515d,Animal,1.0,2827.0,0,2,7,choice,1,-1,2.0,5,5,1,2,2.0
497,634,w496515d,Large,0.0,1900.0,1,3,7,choice,3,-1,-3.0,5,5,2,3,-2.0
498,635,w496515d,Pattern,1.0,1742.0,0,4,7,choice,2,-1,0.0,5,5,2,2,0.0
499,636,wa0cc687,Land,1.0,3129.0,0,1,1,choice,2,-1,0.0,2,2,1,1,1.0
500,637,wa0cc687,Small,1.0,3573.0,1,2,1,choice,1,1,1.0,2,2,1,1,1.0
501,638,wa0cc687,Solid,0.0,1810.0,1,3,1,choice,4,-1,-1.0,2,2,2,3,2.0
502,639,wa0cc687,Animal,1.0,1093.0,0,4,1,choice,3,-2,0.0,2,2,1,1,1.0
503,642,wa0cc687,Object,1.0,2349.0,1,3,2,choice,4,1,3.0,2,2,1,1,1.0
504,643,wa0cc687,Small,1.0,1830.0,1,4,2,choice,3,1,2.0,2,2,1,1,1.0
505,646,wa0cc687,Object,1.0,2451.0,0,3,3,choice,4,-3,-5.0,2,2,1,2,-2.0
506,648,wa0cc687,Large,1.0,3712.0,0,1,4,choice,2,-3,-1.0,2,2,1,2,1.0
507,649,wa0cc687,Sea,0.0,1403.0,0,2,4,choice,3,1,-2.0,2,2,1,2,1.0
508,650,wa0cc687,Pattern,1.0,1331.0,0,3,4,choice,4,-2,-3.0,2,2,1,2,1.0
509,653,wa0cc687,Object,1.0,810.0,1,2,5,choice,3,3,-1.0,2,2,2,4,0.0
510,654,wa0cc687,Large,1.0,2088.0,1,3,5,choice,1,1,-1.0,2,2,1,2,-1.0
511,655,wa0cc687,Pattern,0.0,1449.0,1,4,5,choice,4,-1,-2.0,2,2,1,2,-1.0
512,656,wa0cc687,Land,0.0,1175.0,0,1,6,choice,3,3,2.0,2,2,1,3,2.0
513,657,wa0cc687,Small,1.0,888.0,1,2,6,choice,2,4,3.0,2,2,2,4,3.0
514,658,wa0cc687,Pattern,1.0,2292.0,1,3,6,choice,4,1,0.0,2,2,2,3,3.0
515,660,we07eba7,Small,,,0,1,1,choice,1,-2,-2.0,5,5,1,1,-2.0
516,661,we07eba7,Land,1.0,2866.0,1,2,1,choice,4,4,-3.0,5,5,3,3,-2.0
517,662,we07eba7,Object,0.0,3718.0,0,3,1,choice,2,4,-3.0,5,5,1,1,-2.0
518,663,we07eba7,Pattern,1.0,4149.0,1,4,1,choice,3,1,2.0,5,5,3,3,2.0
519,664,we07eba7,Solid,1.0,2505.0,0,1,2,choice,4,-1,0.0,4,4,4,4,0.0
520,665,we07eba7,Sea,1.0,3097.0,0,2,2,choice,2,-1,0.0,4,4,1,1,-2.0
521,666,we07eba7,Object,1.0,2958.0,1,3,2,choice,1,2,2.0,4,4,1,1,2.0
522,667,we07eba7,Large,0.0,2471.0,1,4,2,choice,3,-2,-1.0,4,4,3,3,-1.0
523,668,we07eba7,Pattern,1.0,4731.0,1,1,3,choice,2,3,0.0,5,5,2,3,0.0
524,669,we07eba7,Small,0.0,1488.0,1,2,3,choice,1,-2,-1.0,5,5,1,2,-1.0
525,670,we07eba7,Animal,1.0,3651.0,0,3,3,choice,4,-1,2.0,5,5,4,5,2.0
526,671,we07eba7,Land,1.0,3075.0,0,4,3,choice,3,-3,2.0,5,5,3,3,2.0
527,672,we07eba7,Land,1.0,3037.0,1,1,4,choice,1,2,1.0,2,2,1,3,1.0
528,673,we07eba7,Pattern,1.0,2608.0,1,2,4,choice,2,1,2.0,2,2,1,3,1.0
529,674,we07eba7,Large,0.0,1421.0,1,3,4,choice,3,-2,-3.0,2,2,1,3,-2.0
530,675,we07eba7,Object,1.0,911.0,0,4,4,choice,4,-2,-2.0,2,2,2,3,-1.0
531,676,we07eba7,Animal,0.0,4783.0,1,1,5,choice,3,-1,2.0,3,3,1,2,-1.0
532,677,we07eba7,Small,0.0,1739.0,0,2,5,choice,4,3,7.0,3,3,1,3,2.0
533,678,we07eba7,Sea,0.0,3288.0,0,3,5,choice,2,3,4.0,3,3,1,2,2.0
534,679,we07eba7,Pattern,1.0,3003.0,1,4,5,choice,1,1,2.0,3,3,1,3,2.0
535,680,we07eba7,Solid,1.0,2265.0,0,1,6,choice,1,-1,-2.0,4,4,1,3,-2.0
536,681,we07eba7,Sea,0.0,2371.0,1,2,6,choice,3,-4,-6.0,4,4,2,2,-4.0
537,682,we07eba7,Large,1.0,2550.0,0,3,6,choice,2,-1,-1.0,4,4,1,2,-2.0
538,683,we07eba7,Animal,1.0,2749.0,1,4,6,choice,4,1,-1.0,4,4,2,4,0.0
539,684,we07eba7,Animal,1.0,4784.0,0,1,7,choice,1,-2,1.0,3,3,1,2,1.0
540,685,we07eba7,Solid,1.0,2270.0,1,2,7,choice,2,3,2.0,3,3,1,1,1.0
541,686,we07eba7,Land,0.0,668.0,1,3,7,choice,3,-3,0.0,3,3,3,5,0.0
542,687,we07eba7,Small,1.0,1630.0,0,4,7,choice,4,-1,1.0,3,3,2,3,2.0
543,688,w93de42b,Small,1.0,4022.0,1,1,1,choice,1,2,2.0,6,6,1,1,2.0
544,689,w93de42b,Land,,,0,2,1,choice,4,-1,2.0,6,6,4,4,2.0
545,690,w93de42b,Pattern,1.0,4065.0,0,3,1,choice,3,-3,0.0,6,6,3,3,0.0
546,691,w93de42b,Object,1.0,5991.0,1,4,1,choice,2,2,2.0,6,6,2,2,2.0
547,692,w93de42b,Sea,0.0,3950.0,1,1,2,choice,2,-3,-3.0,5,5,1,1,-2.0
548,693,w93de42b,Solid,0.0,5206.0,0,2,2,choice,4,2,0.0,5,5,3,3,1.0
549,694,w93de42b,Large,0.0,2236.0,0,3,2,choice,3,3,-1.0,5,5,2,2,0.0
550,695,w93de42b,Object,1.0,5638.0,1,4,2,choice,1,2,1.0,5,5,1,1,1.0
551,696,w93de42b,Animal,0.0,2668.0,0,1,3,choice,4,3,1.0,4,4,3,3,0.0
552,697,w93de42b,Land,1.0,6075.0,1,2,3,choice,3,2,1.0,4,4,2,2,0.0
553,698,w93de42b,Pattern,0.0,5272.0,1,3,3,choice,2,-3,-3.0,4,4,2,2,-3.0
554,700,w93de42b,Pattern,1.0,5097.0,0,1,4,choice,2,-1,2.0,5,5,2,2,2.0
555,701,w93de42b,Large,0.0,1972.0,1,2,4,choice,3,-5,-2.0,5,5,2,2,-1.0
556,702,w93de42b,Land,1.0,2826.0,1,3,4,choice,1,1,1.0,5,5,1,1,1.0
557,703,w93de42b,Object,0.0,3180.0,1,4,4,choice,4,-2,1.0,5,5,4,4,1.0
558,704,w93de42b,Animal,1.0,5387.0,1,1,5,choice,3,1,-1.0,3,3,1,1,1.0
559,705,w93de42b,Sea,1.0,5845.0,1,2,5,choice,2,2,2.0,3,3,2,3,2.0
560,706,w93de42b,Pattern,0.0,3560.0,0,3,5,choice,1,1,1.0,3,3,1,1,1.0
561,707,w93de42b,Small,1.0,3837.0,0,4,5,choice,4,-1,-1.0,3,3,2,2,2.0
562,709,w93de42b,Large,0.0,3433.0,0,2,6,choice,2,3,1.0,2,2,1,1,2.0
563,711,w93de42b,Animal,1.0,2076.0,1,4,6,choice,4,2,0.0,2,2,1,1,2.0
564,712,wa88aaed,Solid,,,0,1,1,choice,4,-1,1.0,5,5,4,4,1.0
565,713,wa88aaed,Large,1.0,4975.0,1,2,1,choice,2,3,4.0,5,5,2,2,4.0
566,714,wa88aaed,Land,0.0,4952.0,1,3,1,choice,1,-1,-1.0,5,5,1,1,-1.0
567,715,wa88aaed,Animal,0.0,1504.0,1,4,1,choice,3,-4,-3.0,5,5,2,2,-2.0
568,716,wa88aaed,Sea,0.0,1924.0,0,1,2,choice,1,1,1.0,4,4,1,1,1.0
569,717,wa88aaed,Large,0.0,4133.0,1,2,2,choice,3,-2,6.0,4,4,3,3,6.0
570,718,wa88aaed,Solid,1.0,1466.0,0,3,2,choice,4,-2,6.0,4,4,3,4,5.0
571,719,wa88aaed,Animal,0.0,2974.0,1,4,2,choice,2,-3,4.0,4,4,2,3,4.0
572,720,wa88aaed,Small,1.0,2942.0,1,1,3,choice,3,1,0.0,2,2,1,2,0.0
573,721,wa88aaed,Solid,1.0,3716.0,0,2,3,choice,1,-2,0.0,2,2,1,2,0.0
574,722,wa88aaed,Sea,0.0,1642.0,1,3,3,choice,4,-1,0.0,2,2,1,2,0.0
575,723,wa88aaed,Object,1.0,2432.0,0,4,3,choice,2,-4,0.0,2,2,1,2,0.0
576,724,wa88aaed,Land,0.0,2968.0,0,1,4,choice,2,1,0.0,4,4,2,2,0.0
577,725,wa88aaed,Object,0.0,2554.0,1,2,4,choice,1,-1,-2.0,4,4,1,1,-2.0
578,726,wa88aaed,Small,1.0,2610.0,1,3,4,choice,3,3,5.0,4,4,2,2,4.0
579,727,wa88aaed,Pattern,0.0,2033.0,0,4,4,choice,4,2,3.0,4,4,2,2,0.0
580,728,wa88aaed,Land,0.0,3608.0,1,1,5,choice,1,-1,-2.0,4,4,1,3,-2.0
581,729,wa88aaed,Animal,1.0,3986.0,1,2,5,choice,2,1,1.0,4,4,2,2,1.0
582,730,wa88aaed,Small,0.0,3566.0,1,3,5,choice,3,-1,-4.0,4,4,2,3,-3.0
583,731,wa88aaed,Pattern,0.0,1634.0,0,4,5,choice,4,1,-2.0,4,4,2,3,-3.0
584,732,wa88aaed,Object,0.0,3552.0,0,1,6,choice,3,1,1.0,4,4,2,2,-1.0
585,733,wa88aaed,Small,1.0,1556.0,1,2,6,choice,4,2,2.0,4,4,3,4,0.0
586,734,wa88aaed,Pattern,0.0,2591.0,1,3,6,choice,2,-4,-4.0,4,4,2,2,-4.0
587,735,wa88aaed,Sea,1.0,1314.0,1,4,6,choice,1,2,1.0,4,4,1,2,1.0
588,736,wa88aaed,Large,1.0,4331.0,1,1,7,choice,3,1,2.0,5,5,3,3,2.0
589,737,wa88aaed,Animal,0.0,2277.0,1,2,7,choice,1,-1,2.0,5,5,1,1,2.0
590,738,wa88aaed,Sea,0.0,1926.0,1,3,7,choice,4,-3,1.0,5,5,3,3,2.0
591,739,wa88aaed,Pattern,1.0,1952.0,1,4,7,choice,2,1,1.0,5,5,1,1,2.0
592,740,w4140fe6,Animal,1.0,2003.0,1,1,1,choice,3,2,2.0,3,3,1,2,2.0
593,741,w4140fe6,Large,0.0,1368.0,1,2,1,choice,2,-1,-3.0,3,3,1,3,-2.0
594,743,w4140fe6,Solid,1.0,2756.0,1,4,1,choice,4,3,4.0,3,3,2,2,3.0
595,744,w4140fe6,Solid,1.0,1602.0,0,1,2,choice,4,-3,0.0,2,2,1,1,-2.0
596,748,w4140fe6,Sea,0.0,3274.0,1,1,3,choice,4,-2,-7.0,3,3,2,3,-3.0
597,749,w4140fe6,Solid,1.0,1408.0,1,2,3,choice,1,1,-1.0,3,3,1,3,-1.0
598,751,w4140fe6,Object,1.0,4686.0,1,4,3,choice,2,2,-3.0,3,3,1,2,-1.0
599,752,w4140fe6,Small,0.0,2150.0,1,1,4,choice,3,-2,-5.0,5,5,3,3,-5.0
600,753,w4140fe6,Land,0.0,5734.0,0,2,4,choice,2,2,-2.0,5,5,2,2,-2.0
601,754,w4140fe6,Pattern,1.0,1444.0,1,3,4,choice,4,2,-2.0,5,5,4,4,-2.0
602,755,w4140fe6,Object,0.0,1081.0,0,4,4,choice,1,1,-1.0,5,5,1,1,-1.0
603,756,w4140fe6,Animal,1.0,2020.0,1,1,5,choice,2,3,0.0,2,2,2,4,0.0
604,757,w4140fe6,Small,0.0,3757.0,1,2,5,choice,3,-1,-5.0,2,2,1,2,-2.0
605,758,w4140fe6,Pattern,0.0,914.0,1,3,5,choice,4,-3,-7.0,2,2,1,2,-2.0
606,760,w4140fe6,Sea,0.0,1327.0,0,1,6,choice,1,1,1.0,3,3,1,3,1.0
607,761,w4140fe6,Pattern,0.0,3312.0,0,2,6,choice,2,4,4.0,3,3,1,2,2.0
608,762,w4140fe6,Small,1.0,2619.0,0,3,6,choice,4,-1,0.0,3,3,2,3,3.0
609,763,w4140fe6,Object,1.0,1013.0,1,4,6,choice,3,1,2.0,3,3,2,2,3.0
610,764,w4140fe6,Large,1.0,2495.0,1,1,7,choice,3,1,1.0,3,3,1,2,1.0
611,765,w4140fe6,Pattern,0.0,4044.0,0,2,7,choice,2,3,-1.0,3,3,1,2,1.0
612,766,w4140fe6,Sea,0.0,3175.0,0,3,7,choice,4,1,-3.0,3,3,2,3,-2.0
613,767,w4140fe6,Animal,1.0,1638.0,0,4,7,choice,1,-1,-1.0,3,3,1,2,-1.0
614,768,w6079012,Large,1.0,3607.0,1,1,1,choice,2,1,4.0,3,3,1,3,2.0
615,769,w6079012,Solid,1.0,3951.0,0,2,1,choice,4,-2,3.0,3,3,2,3,3.0
616,771,w6079012,Animal,0.0,4202.0,0,4,1,choice,3,3,-1.0,3,3,2,4,0.0
617,772,w6079012,Solid,1.0,2905.0,0,1,2,choice,4,-1,1.0,4,4,3,4,0.0
618,773,w6079012,Animal,1.0,4796.0,0,2,2,choice,2,-3,3.0,4,4,2,2,3.0
619,774,w6079012,Sea,0.0,1219.0,0,3,2,choice,1,1,-1.0,4,4,1,3,-1.0
620,775,w6079012,Large,1.0,1420.0,0,4,2,choice,3,-1,4.0,4,4,2,4,3.0
621,776,w6079012,Small,0.0,1961.0,1,1,3,choice,3,-2,2.0,4,4,2,3,3.0
622,777,w6079012,Object,1.0,2176.0,0,2,3,choice,2,-1,2.0,4,4,2,3,2.0
623,778,w6079012,Sea,1.0,5027.0,0,3,3,choice,4,-2,2.0,4,4,2,2,2.0
624,779,w6079012,Solid,1.0,2482.0,1,4,3,choice,1,1,1.0,4,4,1,1,1.0
625,780,w6079012,Object,0.0,5087.0,0,1,4,choice,1,2,2.0,3,3,1,2,2.0
626,781,w6079012,Pattern,1.0,3354.0,1,2,4,choice,4,5,4.0,3,3,2,3,3.0
627,782,w6079012,Land,1.0,2279.0,1,3,4,choice,2,1,3.0,3,3,2,4,3.0
628,783,w6079012,Small,1.0,4855.0,0,4,4,choice,3,-1,2.0,3,3,2,2,3.0
629,784,w6079012,Pattern,0.0,1743.0,0,1,5,choice,4,1,3.0,5,5,3,3,1.0
630,785,w6079012,Land,0.0,1565.0,0,2,5,choice,1,2,-1.0,5,5,1,1,-1.0
631,786,w6079012,Animal,1.0,1238.0,0,3,5,choice,2,-3,3.0,5,5,2,2,3.0
632,787,w6079012,Small,1.0,2687.0,1,4,5,choice,3,2,1.0,5,5,3,3,1.0
633,788,w6079012,Object,0.0,3056.0,1,1,6,choice,3,-2,-2.0,4,4,3,5,-2.0
634,789,w6079012,Small,0.0,1888.0,1,2,6,choice,4,-1,-1.0,4,4,3,4,-2.0
635,790,w6079012,Pattern,0.0,1241.0,0,3,6,choice,2,3,1.0,4,4,1,3,-1.0
636,791,w6079012,Sea,0.0,1109.0,1,4,6,choice,1,-1,-2.0,4,4,1,3,-2.0
637,792,w6079012,Pattern,0.0,6431.0,0,1,7,choice,2,1,1.0,4,4,2,3,1.0
638,794,w6079012,Sea,1.0,1105.0,0,3,7,choice,4,-2,-1.0,4,4,3,4,-2.0
639,795,w6079012,Large,1.0,2425.0,1,4,7,choice,3,2,-1.0,4,4,2,2,0.0
640,796,w6c5aa72,Object,1.0,4384.0,0,1,2,choice,4,-1,-2.0,3,3,2,2,-3.0
641,797,w6c5aa72,Small,1.0,4958.0,1,2,2,choice,3,2,2.0,3,3,1,1,-1.0
642,798,w6c5aa72,Pattern,0.0,3290.0,1,3,2,choice,1,-2,-1.0,3,3,1,1,-1.0
643,799,w6c5aa72,Land,0.0,2464.0,1,4,2,choice,2,-1,-2.0,3,3,1,1,-1.0
644,803,w6c5aa72,Sea,1.0,3877.0,1,4,4,choice,3,2,1.0,1,1,1,1,1.0
645,805,wfd759db,Animal,1.0,4332.0,1,2,1,choice,3,3,3.0,5,5,2,2,2.0
646,806,wfd759db,Solid,1.0,1321.0,1,3,1,choice,4,1,2.0,5,5,3,3,1.0
647,807,wfd759db,Large,0.0,1125.0,1,4,1,choice,2,-3,-3.0,5,5,2,2,-3.0
648,808,wfd759db,Solid,0.0,6885.0,0,1,2,choice,4,1,0.0,5,5,3,3,-1.0
649,809,wfd759db,Large,0.0,1022.0,1,2,2,choice,3,-2,-3.0,5,5,3,3,-3.0
650,811,wfd759db,Animal,0.0,3536.0,1,4,2,choice,2,-3,-3.0,5,5,2,2,-3.0
651,812,wfd759db,Object,0.0,5850.0,0,1,3,choice,2,3,-1.0,4,4,1,2,-2.0
652,813,wfd759db,Solid,0.0,4054.0,0,2,3,choice,1,2,-2.0,4,4,1,3,-2.0
653,814,wfd759db,Small,1.0,1271.0,0,3,3,choice,3,-2,5.0,4,4,2,3,4.0
654,815,wfd759db,Sea,1.0,1148.0,1,4,3,choice,4,2,0.0,4,4,2,3,0.0
655,817,wfd759db,Land,0.0,1921.0,0,2,4,choice,2,3,3.0,1,1,1,2,2.0
656,818,wfd759db,Small,1.0,3427.0,0,3,4,choice,3,-1,4.0,1,1,1,1,2.0
657,819,wfd759db,Pattern,1.0,2461.0,1,4,4,choice,4,3,3.0,1,1,1,1,2.0
658,820,wfd759db,Small,1.0,4073.0,1,1,5,choice,3,2,-3.0,2,2,2,5,-1.0
659,821,wfd759db,Pattern,0.0,1638.0,0,2,5,choice,4,4,-5.0,2,2,2,3,-1.0
660,823,wfd759db,Animal,0.0,2515.0,0,4,5,choice,2,1,2.0,2,2,1,3,1.0
661,824,wfd759db,Pattern,1.0,3659.0,0,1,6,choice,2,-2,-2.0,4,4,2,3,-2.0
662,825,wfd759db,Sea,0.0,2965.0,0,2,6,choice,1,2,2.0,4,4,1,2,2.0
663,826,wfd759db,Small,1.0,2431.0,1,3,6,choice,4,4,4.0,4,4,3,3,3.0
664,827,wfd759db,Object,0.0,4049.0,0,4,6,choice,3,3,3.0,4,4,3,4,3.0
665,828,wfd759db,Sea,1.0,2645.0,1,1,7,choice,4,3,5.0,3,3,2,2,1.0
666,829,wfd759db,Large,0.0,3484.0,1,2,7,choice,3,-1,-3.0,3,3,2,2,-2.0
667,830,wfd759db,Pattern,1.0,1824.0,0,3,7,choice,2,-3,1.0,3,3,1,1,-1.0
668,860,w8146fb9,Land,1.0,6220.0,0,1,1,choice,4,-2,-1.0,4,4,2,2,-4.0
669,861,w8146fb9,Small,1.0,4769.0,0,2,1,choice,2,-1,0.0,4,4,1,2,-2.0
670,863,w8146fb9,Animal,0.0,2668.0,1,4,1,choice,3,-5,-5.0,4,4,3,3,-5.0
671,864,w8146fb9,Pattern,0.0,3240.0,1,1,2,choice,1,-2,1.0,6,6,1,1,1.0
672,865,w8146fb9,Sea,1.0,3380.0,1,2,2,choice,3,2,-1.0,6,6,3,3,-1.0
673,866,w8146fb9,Small,1.0,4195.0,0,3,2,choice,4,-2,-3.0,6,6,4,4,-3.0
674,867,w8146fb9,Animal,1.0,2972.0,1,4,2,choice,2,3,0.0,6,6,2,2,0.0
675,868,w8146fb9,Sea,1.0,4438.0,0,1,3,choice,2,-1,0.0,5,5,2,2,0.0
676,869,w8146fb9,Large,1.0,4388.0,1,2,3,choice,4,2,3.0,5,5,3,3,4.0
677,870,w8146fb9,Solid,1.0,4648.0,1,3,3,choice,1,2,2.0,5,5,1,1,2.0
678,871,w8146fb9,Animal,0.0,2538.0,1,4,3,choice,3,-3,-2.0,5,5,2,2,-1.0
679,872,w8146fb9,Object,1.0,3292.0,1,1,4,choice,2,2,3.0,5,5,1,1,1.0
680,873,w8146fb9,Sea,0.0,2333.0,0,2,4,choice,3,1,0.0,5,5,2,2,-2.0
681,874,w8146fb9,Large,1.0,2610.0,0,3,4,choice,4,-1,1.0,5,5,3,3,-1.0
682,875,w8146fb9,Solid,0.0,5210.0,1,4,4,choice,1,-2,-2.0,5,5,1,1,-2.0
683,877,w8146fb9,Land,1.0,1366.0,1,2,5,choice,3,2,-1.0,4,4,2,3,-2.0
684,878,w8146fb9,Object,0.0,1720.0,1,3,5,choice,4,-2,1.0,4,4,2,3,-2.0
685,880,w8146fb9,Land,1.0,1734.0,1,1,6,choice,4,2,-1.0,6,6,4,4,-1.0
686,881,w8146fb9,Small,1.0,2270.0,1,2,6,choice,2,3,0.0,6,6,2,2,0.0
687,882,w8146fb9,Solid,1.0,3621.0,0,3,6,choice,3,-3,-5.0,6,6,3,3,-5.0
688,883,w8146fb9,Object,0.0,1137.0,0,4,6,choice,1,2,1.0,6,6,1,1,1.0
689,884,w8146fb9,Land,0.0,2518.0,1,1,7,choice,1,-2,1.0,6,6,1,1,1.0
690,885,w8146fb9,Animal,0.0,4269.0,1,2,7,choice,4,-3,0.0,6,6,4,4,0.0
691,886,w8146fb9,Solid,1.0,2557.0,1,3,7,choice,2,1,1.0,6,6,2,2,1.0
692,887,w8146fb9,Large,0.0,1173.0,1,4,7,choice,3,-1,0.0,6,6,3,3,0.0
693,888,w21be7c0,Animal,1.0,1325.0,1,1,2,choice,2,1,0.0,5,5,1,1,-10.0
694,890,w21be7c0,Small,1.0,522.0,0,3,2,choice,4,-3,4.0,5,5,1,1,-10.0
695,891,w21be7c0,Sea,1.0,591.0,0,4,2,choice,3,-1,2.0,5,5,1,2,-10.0
696,892,w21be7c0,Animal,1.0,2338.0,1,1,3,choice,3,4,-2.0,6,6,2,2,-5.0
697,893,w21be7c0,Large,1.0,2536.0,0,2,3,choice,4,-1,-6.0,6,6,2,2,-5.0
698,895,w21be7c0,Sea,1.0,867.0,0,4,3,choice,2,-1,-4.0,6,6,2,2,-10.0
699,896,w21be7c0,Sea,0.0,1960.0,1,1,4,choice,3,-3,-3.0,4,4,3,4,-5.0
700,898,w21be7c0,Object,1.0,2354.0,1,3,4,choice,2,1,0.0,4,4,1,2,-4.0
701,899,w21be7c0,Large,0.0,1683.0,0,4,4,choice,4,1,-1.0,4,4,2,2,-6.0
702,900,w21be7c0,Land,0.0,3042.0,1,1,5,choice,3,-1,1.0,4,4,1,2,-2.0
703,901,w21be7c0,Object,1.0,1305.0,1,2,5,choice,4,4,-2.0,4,4,1,1,-4.0
704,902,w21be7c0,Large,1.0,1251.0,1,3,5,choice,1,2,-2.0,4,4,1,3,-4.0
705,903,w21be7c0,Pattern,1.0,1615.0,1,4,5,choice,2,4,-1.0,4,4,1,3,-4.0
706,904,w21be7c0,Small,1.0,1505.0,1,1,6,choice,2,3,1.0,6,6,1,1,-6.0
707,905,w21be7c0,Solid,0.0,1359.0,1,2,6,choice,3,-2,0.0,6,6,1,1,-6.0
708,907,w21be7c0,Land,1.0,1973.0,1,4,6,choice,4,4,2.0,6,6,1,1,-6.0
709,940,w62f57a5,Small,,,0,1,1,choice,2,-3,-1.0,5,5,1,2,-2.0
710,941,w62f57a5,Pattern,1.0,2738.0,1,2,1,choice,1,2,2.0,5,5,1,1,2.0
711,942,w62f57a5,Land,0.0,2772.0,1,3,1,choice,4,-3,-1.0,5,5,3,3,-2.0
712,943,w62f57a5,Animal,0.0,3044.0,1,4,1,choice,3,-3,-3.0,5,5,3,4,-3.0
713,944,w62f57a5,Animal,0.0,2085.0,1,1,2,choice,2,-1,-1.0,4,4,2,3,-1.0
714,945,w62f57a5,Pattern,0.0,4127.0,1,2,2,choice,1,-1,1.0,4,4,1,1,1.0
715,946,w62f57a5,Small,1.0,1567.0,0,3,2,choice,4,-3,2.0,4,4,3,3,0.0
716,947,w62f57a5,Sea,0.0,4373.0,0,4,2,choice,3,1,1.0,4,4,2,3,-1.0
717,948,w62f57a5,Large,1.0,4519.0,1,1,3,choice,4,3,5.0,5,5,4,4,5.0
718,949,w62f57a5,Animal,1.0,5250.0,1,2,3,choice,3,2,1.0,5,5,3,4,1.0
719,950,w62f57a5,Sea,0.0,1555.0,1,3,3,choice,2,-1,-1.0,5,5,1,2,1.0
720,951,w62f57a5,Solid,1.0,1879.0,1,4,3,choice,1,1,2.0,5,5,1,2,2.0
721,952,w62f57a5,Large,0.0,3543.0,1,1,4,choice,4,-3,-3.0,3,3,2,3,-3.0
722,953,w62f57a5,Object,0.0,5026.0,1,2,4,choice,2,-4,-3.0,3,3,1,3,-2.0
723,955,w62f57a5,Sea,0.0,1578.0,1,4,4,choice,3,-2,-1.0,3,3,2,4,0.0
724,956,w62f57a5,Land,1.0,3274.0,0,1,5,choice,3,-2,3.0,4,4,2,3,2.0
725,957,w62f57a5,Object,1.0,2370.0,1,2,5,choice,4,2,-2.0,4,4,3,4,-3.0
726,958,w62f57a5,Large,0.0,1543.0,0,3,5,choice,1,2,-2.0,4,4,1,3,-2.0
727,959,w62f57a5,Pattern,0.0,1274.0,0,4,5,choice,2,3,-1.0,4,4,2,3,-1.0
728,960,w62f57a5,Small,1.0,2522.0,1,1,6,choice,2,3,-1.0,5,5,2,3,-1.0
729,961,w62f57a5,Solid,0.0,2644.0,1,2,6,choice,3,-2,-3.0,5,5,2,3,-4.0
730,962,w62f57a5,Land,0.0,2876.0,0,3,6,choice,4,2,-4.0,5,5,4,4,-4.0
731,963,w62f57a5,Object,1.0,2668.0,1,4,6,choice,1,1,1.0,5,5,1,1,1.0
732,964,w62f57a5,Land,1.0,3728.0,0,1,7,choice,1,-2,-2.0,5,5,1,2,-2.0
733,965,w62f57a5,Animal,0.0,2896.0,1,2,7,choice,4,-4,-4.0,5,5,4,4,-4.0
734,966,w62f57a5,Large,0.0,1300.0,0,3,7,choice,3,1,-2.0,5,5,2,2,0.0
735,967,w62f57a5,Solid,1.0,1026.0,1,4,7,choice,2,3,-1.0,5,5,1,1,1.0
736,968,w063688a,Solid,1.0,4096.0,1,1,1,choice,4,2,5.0,6,6,4,4,5.0
737,969,w063688a,Animal,1.0,4564.0,1,2,1,choice,3,3,3.0,6,6,3,3,3.0
738,970,w063688a,Land,0.0,6736.0,0,3,1,choice,2,1,4.0,6,6,2,2,4.0
739,971,w063688a,Small,0.0,5430.0,1,4,1,choice,1,-1,-1.0,6,6,1,1,-1.0
740,972,w063688a,Small,0.0,6326.0,1,1,2,choice,3,-2,-2.0,6,6,3,3,-2.0
741,973,w063688a,Object,1.0,4226.0,1,2,2,choice,4,3,3.0,6,6,4,4,3.0
742,974,w063688a,Pattern,0.0,3634.0,1,3,2,choice,1,-2,2.0,6,6,1,1,2.0
743,975,w063688a,Land,0.0,4218.0,1,4,2,choice,2,-1,3.0,6,6,2,2,3.0
744,976,w063688a,Solid,0.0,4854.0,1,1,3,choice,3,-2,-2.0,5,5,3,4,-2.0
745,977,w063688a,Land,1.0,2775.0,1,2,3,choice,1,2,2.0,5,5,1,1,2.0
746,978,w063688a,Large,0.0,4861.0,1,3,3,choice,2,-3,-4.0,5,5,1,1,-2.0
747,979,w063688a,Object,0.0,2875.0,1,4,3,choice,4,-3,-8.0,5,5,3,3,-6.0
748,980,w063688a,Sea,0.0,4245.0,1,1,4,choice,3,-4,-4.0,6,6,3,3,-4.0
749,981,w063688a,Animal,0.0,3670.0,1,2,4,choice,1,-1,-1.0,6,6,1,1,-1.0
750,982,w063688a,Pattern,0.0,1634.0,0,3,4,choice,4,1,1.0,6,6,4,4,1.0
751,983,w063688a,Large,1.0,2900.0,1,4,4,choice,2,1,1.0,6,6,2,2,1.0
752,984,w063688a,Object,1.0,4081.0,1,1,5,choice,3,5,2.0,5,5,3,4,2.0
753,985,w063688a,Sea,0.0,3960.0,1,2,5,choice,2,-3,-4.0,5,5,2,3,-4.0
754,986,w063688a,Large,0.0,3693.0,0,3,5,choice,1,1,1.0,5,5,1,1,1.0
755,987,w063688a,Pattern,1.0,2031.0,0,4,5,choice,4,-1,0.0,5,5,3,3,-2.0
756,988,w063688a,Land,1.0,3153.0,1,1,6,choice,3,2,2.0,6,6,3,3,2.0
757,989,w063688a,Object,0.0,4864.0,1,2,6,choice,1,-1,-1.0,6,6,1,1,-1.0
758,990,w063688a,Small,1.0,4155.0,1,3,6,choice,2,3,3.0,6,6,2,2,3.0
759,991,w063688a,Pattern,1.0,3493.0,1,4,6,choice,4,3,3.0,6,6,4,4,3.0
760,992,w063688a,Small,0.0,2627.0,1,1,7,choice,4,-1,0.0,5,5,3,4,-2.0
761,993,w063688a,Sea,0.0,4172.0,1,2,7,choice,1,-1,-1.0,5,5,1,2,-1.0
762,994,w063688a,Animal,1.0,2384.0,1,3,7,choice,3,4,5.0,5,5,2,3,3.0
763,995,w063688a,Solid,1.0,3514.0,0,4,7,choice,2,-1,0.0,5,5,1,1,-2.0
764,1024,w31415e8,Large,,,0,1,1,choice,1,2,2.0,4,4,1,2,2.0
765,1025,w31415e8,Sea,0.0,3485.0,0,2,1,choice,3,1,3.0,4,4,2,2,3.0
766,1026,w31415e8,Object,0.0,3969.0,0,3,1,choice,4,3,5.0,4,4,3,5,5.0
767,1028,w31415e8,Solid,1.0,5521.0,0,1,2,choice,4,-3,1.0,5,5,3,3,-1.0
768,1029,w31415e8,Sea,0.0,4941.0,0,2,2,choice,2,1,1.0,5,5,1,2,-1.0
769,1030,w31415e8,Animal,0.0,4575.0,1,3,2,choice,3,-2,1.0,5,5,3,3,1.0
770,1031,w31415e8,Large,0.0,3812.0,1,4,2,choice,1,-1,-1.0,5,5,1,2,-1.0
771,1032,w31415e8,Animal,1.0,5541.0,1,1,3,choice,2,2,-1.0,5,5,1,1,1.0
772,1033,w31415e8,Large,1.0,1570.0,1,2,3,choice,4,2,2.0,5,5,3,3,4.0
773,1034,w31415e8,Land,0.0,3788.0,1,3,3,choice,1,-2,1.0,5,5,1,2,1.0
774,1035,w31415e8,Pattern,0.0,1703.0,0,4,3,choice,3,1,1.0,5,5,2,3,3.0
775,1036,w31415e8,Sea,0.0,4410.0,1,1,4,choice,2,-1,-1.0,5,5,2,3,-1.0
776,1037,w31415e8,Small,1.0,3709.0,1,2,4,choice,1,1,-1.0,5,5,1,2,-1.0
777,1038,w31415e8,Pattern,0.0,2799.0,1,3,4,choice,3,-4,-4.0,5,5,3,3,-4.0
778,1039,w31415e8,Animal,1.0,3871.0,0,4,4,choice,4,-1,-3.0,5,5,3,3,-4.0
779,1040,w31415e8,Object,0.0,5951.0,0,1,5,choice,3,3,3.0,5,5,3,3,3.0
780,1041,w31415e8,Large,1.0,3205.0,1,2,5,choice,4,4,2.0,5,5,4,5,2.0
781,1042,w31415e8,Land,0.0,3140.0,1,3,5,choice,2,-2,-2.0,5,5,1,2,-1.0
782,1043,w31415e8,Solid,1.0,2160.0,1,4,5,choice,1,2,2.0,5,5,1,2,2.0
783,1044,w31415e8,Small,0.0,2854.0,0,1,6,choice,1,2,-1.0,5,5,1,2,-1.0
784,1045,w31415e8,Land,1.0,4996.0,0,2,6,choice,4,-2,-2.0,5,5,3,4,-4.0
785,1046,w31415e8,Pattern,0.0,3047.0,1,3,6,choice,2,-2,-2.0,5,5,2,3,-2.0
786,1047,w31415e8,Object,1.0,2581.0,1,4,6,choice,3,2,3.0,5,5,2,2,1.0
787,1048,w31415e8,Solid,0.0,3273.0,0,1,7,choice,2,3,1.0,5,5,2,2,1.0
788,1049,w31415e8,Land,1.0,3563.0,1,2,7,choice,1,2,2.0,5,5,1,2,2.0
789,1050,w31415e8,Object,1.0,2787.0,0,3,7,choice,3,-1,0.0,5,5,3,4,0.0
790,1051,w31415e8,Small,1.0,3472.0,1,4,7,choice,4,2,-1.0,5,5,4,4,-1.0
791,1052,w9d4c48d,Land,1.0,3259.0,1,1,1,choice,3,5,5.0,5,5,3,3,5.0
792,1053,w9d4c48d,Large,1.0,2785.0,1,2,1,choice,2,3,3.0,5,5,2,2,3.0
793,1054,w9d4c48d,Animal,0.0,2581.0,1,3,1,choice,4,-1,0.0,5,5,3,3,1.0
794,1056,w9d4c48d,Small,1.0,3240.0,1,1,2,choice,3,1,-3.0,4,4,2,2,-1.0
795,1057,w9d4c48d,Sea,1.0,3028.0,1,2,2,choice,2,2,-1.0,4,4,2,3,-1.0
796,1058,w9d4c48d,Animal,1.0,2687.0,0,3,2,choice,4,-1,-2.0,4,4,3,3,0.0
797,1059,w9d4c48d,Pattern,0.0,3030.0,0,4,2,choice,1,1,1.0,4,4,1,2,1.0
798,1060,w9d4c48d,Pattern,1.0,2287.0,1,1,3,choice,3,2,2.0,4,4,3,3,2.0
799,1061,w9d4c48d,Land,1.0,2375.0,1,2,3,choice,2,1,3.0,4,4,2,3,3.0
800,1062,w9d4c48d,Object,1.0,2114.0,0,3,3,choice,4,-2,0.0,4,4,3,3,2.0
801,1063,w9d4c48d,Large,0.0,2968.0,1,4,3,choice,1,-1,-1.0,4,4,1,1,-1.0
802,1064,w9d4c48d,Animal,1.0,2992.0,0,1,4,choice,4,-3,-3.0,6,6,4,4,-3.0
803,1065,w9d4c48d,Small,0.0,5593.0,1,2,4,choice,2,-3,-3.0,6,6,2,2,-3.0
804,1066,w9d4c48d,Land,1.0,4172.0,1,3,4,choice,1,1,2.0,6,6,1,1,2.0
805,1067,w9d4c48d,Solid,0.0,4670.0,0,4,4,choice,3,3,3.0,6,6,3,3,3.0
806,1068,w9d4c48d,Large,0.0,3193.0,1,1,5,choice,2,-3,-4.0,6,6,2,2,-4.0
807,1069,w9d4c48d,Object,1.0,2871.0,1,2,5,choice,4,2,1.0,6,6,4,4,1.0
808,1070,w9d4c48d,Sea,1.0,1778.0,1,3,5,choice,1,1,1.0,6,6,1,1,1.0
809,1071,w9d4c48d,Solid,0.0,2705.0,1,4,5,choice,3,-3,-3.0,6,6,3,3,-3.0
810,1072,w9d4c48d,Pattern,0.0,1265.0,1,1,6,choice,4,-1,-3.0,6,6,4,4,-3.0
811,1073,w9d4c48d,Land,0.0,2032.0,1,2,6,choice,3,-6,-6.0,6,6,3,3,-6.0
812,1074,w9d4c48d,Object,1.0,996.0,1,3,6,choice,1,1,1.0,6,6,1,1,1.0
813,1075,w9d4c48d,Large,0.0,1524.0,1,4,6,choice,2,-4,-4.0,6,6,2,2,-4.0
814,1077,w9d4c48d,Sea,1.0,3487.0,0,2,7,choice,3,-1,-1.0,5,5,3,3,-1.0
815,1078,w9d4c48d,Pattern,0.0,3309.0,0,3,7,choice,4,3,3.0,5,5,3,3,1.0
816,1079,w9d4c48d,Animal,1.0,3308.0,1,4,7,choice,2,4,4.0,5,5,1,1,2.0
817,1080,we35ea87,Large,0.0,2735.0,1,1,1,choice,2,-1,-3.0,4,4,1,3,-2.0
818,1081,we35ea87,Solid,0.0,2563.0,1,2,1,choice,1,-1,1.0,4,4,1,2,1.0
819,1082,we35ea87,Land,0.0,1503.0,1,3,1,choice,3,-2,-2.0,4,4,2,2,-1.0
820,1083,we35ea87,Animal,0.0,1980.0,0,4,1,choice,4,1,3.0,4,4,2,2,2.0
821,1084,we35ea87,Pattern,0.0,1685.0,1,1,2,choice,1,-2,-2.0,5,5,1,2,-2.0
822,1085,we35ea87,Animal,0.0,3702.0,1,2,2,choice,4,-2,-4.0,5,5,3,4,-2.0
823,1086,we35ea87,Small,1.0,5048.0,1,3,2,choice,3,1,-2.0,5,5,3,3,-2.0
824,1087,we35ea87,Sea,0.0,2504.0,0,4,2,choice,2,3,-2.0,5,5,2,2,-2.0
825,1088,we35ea87,Large,0.0,2113.0,0,1,3,choice,1,1,1.0,5,5,1,2,1.0
826,1089,we35ea87,Land,0.0,1181.0,1,2,3,choice,2,-2,0.0,5,5,2,3,0.0
827,1090,we35ea87,Pattern,0.0,5250.0,1,3,3,choice,3,-2,-2.0,5,5,3,3,-2.0
828,1091,we35ea87,Object,1.0,4426.0,1,4,3,choice,4,1,2.0,5,5,4,5,2.0
829,1092,we35ea87,Animal,1.0,1694.0,1,1,4,choice,4,4,0.0,5,5,3,3,-1.0
830,1093,we35ea87,Solid,0.0,2812.0,1,2,4,choice,3,-1,-1.0,5,5,2,2,-2.0
831,1094,we35ea87,Land,0.0,1083.0,1,3,4,choice,1,-2,-2.0,5,5,1,1,-2.0
832,1095,we35ea87,Small,1.0,4010.0,1,4,4,choice,2,1,-3.0,5,5,2,2,-3.0
833,1096,we35ea87,Solid,1.0,1137.0,1,1,5,choice,3,4,4.0,6,6,3,3,4.0
834,1097,we35ea87,Sea,0.0,1935.0,1,2,5,choice,1,-2,-1.0,6,6,1,1,-1.0
835,1098,we35ea87,Object,0.0,2203.0,1,3,5,choice,4,-4,-4.0,6,6,4,4,-4.0
836,1099,we35ea87,Large,0.0,1318.0,0,4,5,choice,2,1,0.0,6,6,2,2,0.0
837,1100,we35ea87,Object,1.0,1516.0,1,1,6,choice,1,2,2.0,4,4,1,1,2.0
838,1101,we35ea87,Land,1.0,1396.0,0,2,6,choice,3,-2,2.0,4,4,2,2,0.0
839,1102,we35ea87,Pattern,1.0,1728.0,1,3,6,choice,4,4,0.0,4,4,4,4,0.0
840,1103,we35ea87,Large,0.0,1184.0,1,4,6,choice,2,-1,3.0,4,4,1,1,1.0
841,1104,we35ea87,Pattern,1.0,1190.0,0,1,7,choice,4,-1,0.0,5,5,3,3,1.0
842,1105,we35ea87,Sea,0.0,2070.0,1,2,7,choice,3,-1,0.0,5,5,2,2,1.0
843,1106,we35ea87,Animal,1.0,1458.0,1,3,7,choice,2,3,3.0,5,5,2,3,3.0
844,1107,we35ea87,Small,0.0,1578.0,0,4,7,choice,1,1,1.0,5,5,1,1,1.0
845,1108,wbe3571b,Land,1.0,5937.0,1,1,1,choice,1,2,1.0,3,3,1,2,1.0
846,1109,wbe3571b,Animal,1.0,4363.0,1,2,1,choice,3,2,1.0,3,3,2,3,-1.0
847,1110,wbe3571b,Large,0.0,4508.0,1,3,1,choice,2,-3,-4.0,3,3,1,2,-2.0
848,1111,wbe3571b,Solid,0.0,961.0,0,4,1,choice,4,4,2.0,3,3,2,3,-1.0
849,1112,wbe3571b,Sea,1.0,1867.0,1,1,2,choice,1,2,2.0,3,3,1,2,2.0
850,1114,wbe3571b,Solid,1.0,880.0,1,3,2,choice,4,2,-1.0,3,3,3,4,1.0
851,1115,wbe3571b,Large,1.0,669.0,0,4,2,choice,3,-1,-5.0,3,3,1,3,-2.0
852,1117,wbe3571b,Small,1.0,3546.0,0,2,3,choice,3,-1,5.0,3,3,3,3,5.0
853,1118,wbe3571b,Object,1.0,2936.0,1,3,3,choice,2,1,1.0,3,3,1,1,2.0
854,1119,wbe3571b,Sea,1.0,1312.0,1,4,3,choice,4,1,2.0,3,3,2,2,4.0
855,1120,wbe3571b,Pattern,1.0,3889.0,1,1,4,choice,4,1,-4.0,5,5,4,4,-4.0
856,1121,wbe3571b,Small,0.0,4677.0,1,2,4,choice,3,-4,-4.0,5,5,2,2,-3.0
857,1122,wbe3571b,Object,1.0,1817.0,1,3,4,choice,1,2,-2.0,5,5,1,1,-2.0
858,1123,wbe3571b,Land,0.0,4216.0,0,4,4,choice,2,1,-3.0,5,5,2,2,-3.0
859,1124,wbe3571b,Land,0.0,2921.0,1,1,5,choice,1,-2,-1.0,5,5,1,1,-1.0
860,1125,wbe3571b,Pattern,0.0,3610.0,1,2,5,choice,4,-3,-2.0,5,5,3,3,-1.0
861,1126,wbe3571b,Small,0.0,1325.0,1,3,5,choice,3,-1,0.0,5,5,2,2,1.0
862,1127,wbe3571b,Animal,1.0,3891.0,1,4,5,choice,2,4,4.0,5,5,2,2,4.0
863,1128,wbe3571b,Small,0.0,2284.0,1,1,6,choice,4,-1,-1.0,5,5,3,3,-3.0
864,1129,wbe3571b,Pattern,0.0,2160.0,1,2,6,choice,2,-3,-3.0,5,5,2,2,-3.0
865,1130,wbe3571b,Object,0.0,1636.0,1,3,6,choice,3,-2,-2.0,5,5,2,2,-4.0
866,1132,wbe3571b,Large,1.0,2051.0,1,1,7,choice,3,1,5.0,2,2,2,2,4.0
867,1134,wbe3571b,Pattern,0.0,1870.0,0,3,7,choice,2,3,4.0,2,2,1,1,2.0
868,1136,w7e41e95,Object,0.0,3261.0,1,1,1,choice,2,-3,-1.0,2,2,1,3,1.0
869,1137,w7e41e95,Small,1.0,2352.0,0,2,1,choice,1,-2,-1.0,2,2,1,2,-1.0
870,1138,w7e41e95,Land,0.0,3958.0,1,3,1,choice,4,-1,2.0,2,2,1,2,1.0
871,1139,w7e41e95,Pattern,0.0,1798.0,0,4,1,choice,3,2,5.0,2,2,1,3,1.0
872,1140,w7e41e95,Solid,,,0,1,2,choice,4,1,0.0,5,5,4,4,0.0
873,1141,w7e41e95,Object,1.0,106.0,0,2,2,choice,1,-2,2.0,5,5,1,1,2.0
874,1142,w7e41e95,Sea,0.0,7150.0,0,3,2,choice,2,1,0.0,5,5,1,1,-2.0
875,1143,w7e41e95,Large,1.0,4696.0,0,4,2,choice,3,-1,2.0,5,5,3,3,2.0
876,1144,w7e41e95,Land,1.0,3063.0,0,1,3,choice,3,-2,-2.0,5,5,3,3,-2.0
877,1145,w7e41e95,Small,1.0,3905.0,1,2,3,choice,1,1,1.0,5,5,1,1,1.0
878,1146,w7e41e95,Animal,1.0,964.0,1,3,3,choice,4,3,3.0,5,5,3,3,1.0
879,1147,w7e41e95,Pattern,0.0,5642.0,0,4,3,choice,2,1,1.0,5,5,1,1,-1.0
880,1148,w7e41e95,Pattern,1.0,3900.0,0,1,4,choice,2,-3,0.0,3,3,2,2,0.0
881,1149,w7e41e95,Object,0.0,3313.0,1,2,4,choice,4,-4,3.0,3,3,3,3,2.0
882,1150,w7e41e95,Land,1.0,2844.0,0,3,4,choice,1,-2,-1.0,3,3,1,1,-1.0
883,1151,w7e41e95,Large,1.0,816.0,1,4,4,choice,3,1,4.0,3,3,2,2,3.0
884,1152,w7e41e95,Small,0.0,2588.0,1,1,5,choice,4,-4,-1.0,3,3,2,3,-2.0
885,1153,w7e41e95,Pattern,1.0,2951.0,0,2,5,choice,1,-1,-1.0,3,3,1,1,-1.0
886,1154,w7e41e95,Sea,0.0,1773.0,1,3,5,choice,2,-3,-2.0,3,3,2,3,-2.0
887,1155,w7e41e95,Animal,1.0,2004.0,1,4,5,choice,3,1,3.0,3,3,2,2,1.0
888,1156,w7e41e95,Sea,0.0,4291.0,1,1,6,choice,3,-2,4.0,2,2,1,1,1.0
889,1157,w7e41e95,Large,1.0,1292.0,0,2,6,choice,2,-1,3.0,2,2,1,2,1.0
890,1160,w7e41e95,Land,0.0,331.0,1,1,7,choice,3,-1,2.0,3,3,1,1,2.0
891,1161,w7e41e95,Animal,0.0,3523.0,1,2,7,choice,1,-1,2.0,3,3,1,1,2.0
892,1162,w7e41e95,Solid,1.0,848.0,1,3,7,choice,2,1,0.0,3,3,1,1,1.0
893,1163,w7e41e95,Small,1.0,1966.0,1,4,7,choice,4,1,3.0,3,3,3,3,4.0
894,1164,wca9e1aa,Animal,1.0,2590.0,1,1,1,choice,3,2,0.0,3,3,1,2,-2.0
895,1165,wca9e1aa,Land,1.0,4301.0,1,2,1,choice,2,4,2.0,3,3,1,2,1.0
896,1166,wca9e1aa,Small,0.0,2110.0,1,3,1,choice,1,-2,-2.0,3,3,1,4,-2.0
897,1167,wca9e1aa,Solid,1.0,2907.0,1,4,1,choice,4,1,1.0,3,3,2,3,-1.0
898,1168,wca9e1aa,Land,1.0,4034.0,1,1,2,choice,2,4,4.0,6,6,2,2,4.0
899,1169,wca9e1aa,Pattern,,,0,2,2,choice,1,2,2.0,6,6,1,1,2.0
900,1170,wca9e1aa,Small,0.0,3357.0,1,3,2,choice,3,-1,-1.0,6,6,3,3,-1.0
901,1171,wca9e1aa,Object,1.0,3794.0,1,4,2,choice,4,2,2.0,6,6,4,4,2.0
902,1172,wca9e1aa,Object,1.0,5163.0,0,1,3,choice,4,-1,-1.0,5,5,4,4,-1.0
903,1173,wca9e1aa,Solid,1.0,3978.0,1,2,3,choice,3,2,2.0,5,5,3,3,2.0
904,1174,wca9e1aa,Large,1.0,4731.0,1,3,3,choice,2,2,2.0,5,5,2,2,2.0
905,1175,wca9e1aa,Land,1.0,5067.0,1,4,3,choice,1,2,2.0,5,5,1,1,2.0
906,1176,wca9e1aa,Sea,0.0,4650.0,0,1,4,choice,3,1,-1.0,3,3,1,1,-1.0
907,1177,wca9e1aa,Pattern,1.0,4007.0,0,2,4,choice,4,-3,-5.0,3,3,2,2,-3.0
908,1178,wca9e1aa,Animal,1.0,3458.0,0,3,4,choice,1,-1,-1.0,3,3,1,1,-1.0
909,1179,wca9e1aa,Large,0.0,2616.0,1,4,4,choice,2,-2,-2.0,3,3,1,1,-1.0
910,1182,wca9e1aa,Pattern,1.0,2233.0,0,3,6,choice,4,-2,0.0,1,1,1,2,-2.0
911,1183,wca9e1aa,Small,1.0,374.0,0,4,6,choice,2,-3,-3.0,1,1,1,3,-2.0
912,1184,wca9e1aa,Sea,0.0,7026.0,0,1,7,choice,1,1,1.0,6,6,1,1,1.0
913,1185,wca9e1aa,Animal,0.0,3097.0,1,2,7,choice,3,-1,-1.0,6,6,3,3,-1.0
914,1186,wca9e1aa,Solid,1.0,2666.0,1,3,7,choice,2,3,3.0,6,6,2,2,3.0
915,1187,wca9e1aa,Small,1.0,1829.0,1,4,7,choice,4,3,3.0,6,6,4,4,3.0
916,1188,wf6aed15,Object,0.0,5583.0,1,1,1,choice,2,-1,-1.0,5,5,1,1,-2.0
917,1189,wf6aed15,Pattern,1.0,3951.0,1,2,1,choice,3,3,3.0,5,5,2,2,2.0
918,1190,wf6aed15,Land,0.0,4558.0,1,3,1,choice,4,-1,-2.0,5,5,3,3,-3.0
919,1191,wf6aed15,Small,1.0,3793.0,0,4,1,choice,1,-1,-2.0,5,5,1,1,-2.0
920,1192,wf6aed15,Large,1.0,5048.0,1,1,2,choice,3,1,1.0,4,4,3,4,1.0
921,1193,wf6aed15,Object,0.0,5881.0,0,2,2,choice,1,2,2.0,4,4,1,2,2.0
922,1194,wf6aed15,Sea,0.0,3778.0,1,3,2,choice,2,-1,-1.0,4,4,2,2,-1.0
923,1195,wf6aed15,Solid,1.0,5449.0,1,4,2,choice,4,3,3.0,4,4,3,3,1.0
924,1196,wf6aed15,Pattern,0.0,5872.0,1,1,3,choice,2,-2,-3.0,5,5,2,3,-3.0
925,1198,wf6aed15,Animal,1.0,4128.0,1,3,3,choice,4,3,2.0,5,5,3,3,1.0
926,1199,wf6aed15,Land,1.0,4176.0,1,4,3,choice,3,1,1.0,5,5,2,2,0.0
927,1200,wf6aed15,Large,1.0,2704.0,0,1,4,choice,3,-1,1.0,3,3,2,2,0.0
928,1202,wf6aed15,Object,1.0,1835.0,1,3,4,choice,4,5,0.0,3,3,2,2,0.0
929,1203,wf6aed15,Pattern,1.0,3892.0,1,4,4,choice,2,1,-3.0,3,3,1,1,-1.0
930,1204,wf6aed15,Sea,1.0,2893.0,1,1,5,choice,2,1,-1.0,3,3,1,3,1.0
931,1205,wf6aed15,Pattern,1.0,5386.0,0,2,5,choice,1,-1,1.0,3,3,1,3,1.0
932,1207,wf6aed15,Small,1.0,2775.0,1,4,5,choice,4,1,0.0,3,3,2,2,3.0
933,1209,wf6aed15,Sea,0.0,3608.0,0,2,6,choice,3,2,-2.0,1,1,1,1,-2.0
934,1210,wf6aed15,Animal,1.0,2662.0,0,3,6,choice,4,-1,-3.0,1,1,1,1,-2.0
935,1212,wf6aed15,Land,1.0,3154.0,1,1,7,choice,3,3,2.0,2,2,2,2,3.0
936,1213,wf6aed15,Small,1.0,3394.0,0,2,7,choice,4,-2,1.0,2,2,1,1,2.0
937,1214,wf6aed15,Solid,0.0,2790.0,1,3,7,choice,2,-2,1.0,2,2,1,1,2.0
938,1216,wc471696,Large,,,0,1,1,choice,2,1,1.0,3,3,2,2,1.0
939,1217,wc471696,Land,,,0,2,1,choice,3,2,3.0,3,3,2,2,1.0
940,1218,wc471696,Animal,0.0,4024.0,1,3,1,choice,4,-1,3.0,3,3,2,2,0.0
941,1220,wc471696,Small,0.0,7329.0,1,1,2,choice,3,-2,-5.0,5,5,2,2,-4.0
942,1221,wc471696,Animal,0.0,6224.0,1,2,2,choice,4,-2,-3.0,5,5,4,4,-3.0
943,1222,wc471696,Sea,1.0,6079.0,1,3,2,choice,2,3,1.0,5,5,1,1,2.0
944,1223,wc471696,Pattern,0.0,6735.0,1,4,2,choice,1,-2,-2.0,5,5,1,1,-2.0
945,1224,wc471696,Pattern,0.0,6811.0,1,1,3,choice,3,-1,1.0,6,6,3,3,1.0
946,1225,wc471696,Object,0.0,5818.0,1,2,3,choice,4,-1,1.0,6,6,4,4,1.0
947,1226,wc471696,Land,1.0,5649.0,1,3,3,choice,2,1,1.0,6,6,2,2,1.0
948,1227,wc471696,Large,0.0,5661.0,1,4,3,choice,1,-1,1.0,6,6,1,1,1.0
949,1228,wc471696,Land,0.0,6623.0,0,1,4,choice,1,1,1.0,5,5,1,1,1.0
950,1229,wc471696,Small,,,0,2,4,choice,2,-1,-1.0,5,5,2,2,-1.0
951,1230,wc471696,Animal,0.0,4087.0,1,3,4,choice,4,-5,-2.0,5,5,4,4,-2.0
952,1231,wc471696,Solid,0.0,4744.0,1,4,4,choice,3,-3,-3.0,5,5,2,2,-4.0
953,1232,wc471696,Object,,,0,1,5,choice,4,2,3.0,6,6,4,4,3.0
954,1233,wc471696,Solid,1.0,4558.0,0,2,5,choice,3,-2,-2.0,6,6,3,3,-2.0
955,1234,wc471696,Large,0.0,5362.0,1,3,5,choice,2,-1,0.0,6,6,2,2,0.0
956,1235,wc471696,Sea,0.0,5664.0,1,4,5,choice,1,-1,-1.0,6,6,1,1,-1.0
957,1236,wc471696,Large,1.0,4929.0,1,1,6,choice,2,2,3.0,6,6,2,2,3.0
958,1237,wc471696,Object,0.0,2769.0,1,2,6,choice,1,-1,-1.0,6,6,1,1,-1.0
959,1238,wc471696,Pattern,1.0,3215.0,1,3,6,choice,4,1,1.0,6,6,4,4,1.0
960,1239,wc471696,Land,1.0,4422.0,1,4,6,choice,3,4,4.0,6,6,3,3,4.0
961,1240,wc471696,Animal,1.0,4852.0,1,1,7,choice,2,2,0.0,6,6,2,2,0.0
962,1241,wc471696,Pattern,0.0,3811.0,1,2,7,choice,4,-1,-2.0,6,6,4,4,-2.0
963,1242,wc471696,Small,1.0,4853.0,1,3,7,choice,1,1,-1.0,6,6,1,1,-1.0
964,1243,wc471696,Sea,0.0,5516.0,1,4,7,choice,3,-1,-1.0,6,6,3,3,-1.0
965,1244,wc5adc9d,Object,1.0,7307.0,1,1,1,choice,2,3,4.0,3,3,1,2,2.0
966,1245,wc5adc9d,Pattern,1.0,6922.0,1,2,1,choice,3,1,2.0,3,3,1,1,2.0
967,1247,wc5adc9d,Land,0.0,3911.0,1,4,1,choice,4,-1,4.0,3,3,3,3,2.0
968,1248,wc5adc9d,Object,1.0,5498.0,0,1,2,choice,1,-1,-1.0,3,3,1,1,-1.0
969,1249,wc5adc9d,Sea,0.0,2450.0,0,2,2,choice,2,1,0.0,3,3,1,1,2.0
970,1250,wc5adc9d,Large,1.0,2826.0,0,3,2,choice,3,-1,3.0,3,3,3,3,3.0
971,1251,wc5adc9d,Solid,1.0,3129.0,1,4,2,choice,4,1,2.0,3,3,3,3,3.0
972,1252,wc5adc9d,Land,1.0,1280.0,1,1,3,choice,3,3,1.0,2,2,1,2,1.0
973,1255,wc5adc9d,Animal,1.0,1852.0,0,4,3,choice,4,-1,2.0,2,2,2,2,2.0
974,1256,wc5adc9d,Object,1.0,2185.0,0,1,4,choice,4,-1,1.0,3,3,1,2,1.0
975,1257,wc5adc9d,Large,1.0,3632.0,1,2,4,choice,3,1,-1.0,3,3,1,2,0.0
976,1258,wc5adc9d,Land,1.0,2022.0,0,3,4,choice,1,-2,1.0,3,3,1,2,1.0
977,1259,wc5adc9d,Pattern,0.0,2227.0,1,4,4,choice,2,-3,2.0,3,3,1,2,1.0
978,1260,wc5adc9d,Small,1.0,6126.0,0,1,5,choice,4,-3,2.0,3,3,2,3,-1.0
979,1261,wc5adc9d,Pattern,1.0,4919.0,0,2,5,choice,1,-1,-2.0,3,3,1,3,-2.0
980,1262,wc5adc9d,Sea,0.0,2067.0,1,3,5,choice,2,-2,-1.0,3,3,2,4,-1.0
981,1263,wc5adc9d,Animal,0.0,3520.0,0,4,5,choice,3,1,3.0,3,3,2,3,2.0
982,1264,wc5adc9d,Animal,1.0,1859.0,1,1,6,choice,4,1,1.0,1,1,1,2,1.0
983,1265,wc5adc9d,Sea,0.0,3489.0,1,2,6,choice,3,-3,3.0,1,1,1,1,1.0
984,1266,wc5adc9d,Solid,0.0,1858.0,1,3,6,choice,1,-1,1.0,1,1,1,2,1.0
985,1268,wc5adc9d,Solid,1.0,2256.0,0,1,7,choice,2,-3,-1.0,2,2,1,1,-1.0
986,1269,wc5adc9d,Small,0.0,1988.0,1,2,7,choice,4,-1,-3.0,2,2,2,2,-3.0
987,1270,wc5adc9d,Land,0.0,1907.0,1,3,7,choice,3,-1,-1.0,2,2,1,1,-1.0
988,1272,w6ebaea9,Sea,0.0,3800.0,0,1,1,choice,3,1,1.0,3,3,1,1,2.0
989,1274,w6ebaea9,Solid,0.0,4584.0,0,3,1,choice,2,1,1.0,3,3,1,2,2.0
990,1275,w6ebaea9,Object,1.0,2508.0,0,4,1,choice,4,-1,0.0,3,3,2,4,1.0
991,1276,w6ebaea9,Sea,1.0,4298.0,1,1,2,choice,2,1,1.0,3,3,1,1,-1.0
992,1277,w6ebaea9,Solid,0.0,5469.0,1,2,2,choice,4,-2,-2.0,3,3,1,2,-1.0
993,1279,w6ebaea9,Animal,1.0,4894.0,1,4,2,choice,3,1,3.0,3,3,1,2,2.0
994,1281,w6ebaea9,Large,1.0,2685.0,0,2,3,choice,4,-1,0.0,2,2,1,3,2.0
995,1283,w6ebaea9,Land,1.0,4883.0,1,4,3,choice,1,2,2.0,2,2,1,5,2.0
996,1285,w6ebaea9,Pattern,0.0,2342.0,1,2,4,choice,3,-3,-3.0,2,2,2,4,-2.0
997,1287,w6ebaea9,Animal,0.0,3203.0,0,4,4,choice,4,1,-1.0,2,2,1,2,-1.0
998,1288,w6ebaea9,Object,0.0,3373.0,1,1,5,choice,3,-1,-1.0,2,2,1,4,1.0
999,1289,w6ebaea9,Large,1.0,4584.0,1,2,5,choice,4,1,0.0,2,2,1,3,1.0
1000,1290,w6ebaea9,Land,0.0,2089.0,1,3,5,choice,2,-1,-1.0,2,2,2,5,-1.0
1001,1292,w6ebaea9,Pattern,1.0,2286.0,1,1,6,choice,2,1,2.0,3,3,2,4,2.0
1002,1293,w6ebaea9,Object,0.0,2284.0,1,2,6,choice,3,-2,-2.0,3,3,2,4,-1.0
1003,1294,w6ebaea9,Land,0.0,3689.0,1,3,6,choice,4,-2,-1.0,3,3,3,5,0.0
1004,1297,w5fb2730,Land,0.0,4956.0,0,2,1,choice,4,4,1.0,2,2,2,2,1.0
1005,1298,w5fb2730,Pattern,1.0,1593.0,1,3,1,choice,3,2,5.0,2,2,1,1,2.0
1006,1299,w5fb2730,Object,1.0,1856.0,1,4,1,choice,2,1,1.0,2,2,1,1,2.0
1007,1300,w5fb2730,Large,1.0,4674.0,0,1,2,choice,3,-1,0.0,3,3,2,2,0.0
1008,1301,w5fb2730,Sea,0.0,2938.0,1,2,2,choice,2,-1,0.0,3,3,1,1,0.0
1009,1302,w5fb2730,Object,0.0,623.0,0,3,2,choice,1,2,0.0,3,3,1,1,0.0
1010,1303,w5fb2730,Solid,0.0,1472.0,0,4,2,choice,4,1,0.0,3,3,2,2,0.0
1011,1304,w06866f0,Animal,,,0,1,1,choice,3,-2,-4.0,5,5,2,2,-3.0
1012,1305,w06866f0,Pattern,1.0,5176.0,1,2,1,choice,1,2,2.0,5,5,1,1,2.0
1013,1306,w06866f0,Small,0.0,4854.0,0,3,1,choice,2,1,0.0,5,5,2,2,0.0
1014,1307,w06866f0,Land,1.0,2268.0,1,4,1,choice,4,1,0.0,5,5,4,4,0.0
1015,1308,w06866f0,Sea,1.0,3900.0,1,1,2,choice,3,2,2.0,5,5,2,3,0.0
1016,1309,w06866f0,Pattern,0.0,5171.0,1,2,2,choice,1,-2,-2.0,5,5,1,1,-2.0
1017,1310,w06866f0,Small,0.0,2756.0,1,3,2,choice,4,-3,-3.0,5,5,4,4,-3.0
1018,1311,w06866f0,Animal,1.0,3284.0,1,4,2,choice,2,3,3.0,5,5,1,1,1.0
1019,1312,w06866f0,Sea,0.0,3320.0,1,1,3,choice,2,-1,-1.0,5,5,2,2,-1.0
1020,1313,w06866f0,Animal,0.0,3187.0,0,2,3,choice,3,1,-2.0,5,5,2,3,-1.0
1021,1314,w06866f0,Large,1.0,5044.0,1,3,3,choice,4,4,1.0,5,5,3,4,2.0
1022,1315,w06866f0,Solid,1.0,1782.0,1,4,3,choice,1,2,2.0,5,5,1,2,2.0
1023,1316,w06866f0,Solid,1.0,2723.0,1,1,4,choice,1,2,2.0,4,4,1,1,2.0
1024,1317,w06866f0,Large,1.0,1317.0,0,2,4,choice,4,-5,-4.0,4,4,3,3,-5.0
1025,1318,w06866f0,Sea,0.0,4676.0,0,3,4,choice,3,1,-1.0,4,4,1,1,-1.0
1026,1319,w06866f0,Object,0.0,4566.0,1,4,4,choice,2,-4,-3.0,4,4,2,2,-3.0
1027,1320,w06866f0,Land,1.0,3114.0,1,1,5,choice,3,1,1.0,5,5,3,3,1.0
1028,1321,w06866f0,Object,0.0,3317.0,1,2,5,choice,4,-1,0.0,5,5,3,3,-1.0
1029,1323,w06866f0,Pattern,0.0,4516.0,1,4,5,choice,2,-1,-1.0,5,5,1,2,-2.0
1030,1324,w06866f0,Solid,1.0,2868.0,1,1,6,choice,3,2,2.0,6,6,3,3,2.0
1031,1325,w06866f0,Land,1.0,1555.0,1,2,6,choice,4,1,1.0,6,6,4,4,1.0
1032,1326,w06866f0,Small,0.0,2293.0,1,3,6,choice,2,-3,-3.0,6,6,2,2,-3.0
1033,1327,w06866f0,Object,0.0,1890.0,1,4,6,choice,1,-1,-1.0,6,6,1,1,-1.0
1034,1328,w06866f0,Large,0.0,3601.0,1,1,7,choice,3,-1,1.0,4,4,1,2,2.0
1035,1329,w06866f0,Land,0.0,1720.0,1,2,7,choice,1,-1,-1.0,4,4,1,2,-1.0
1036,1330,w06866f0,Animal,1.0,2277.0,1,3,7,choice,4,1,1.0,4,4,3,4,3.0
1037,1331,w06866f0,Solid,0.0,1389.0,1,4,7,choice,2,-3,3.0,4,4,1,1,2.0
1038,1332,wb14e228,Land,,,0,1,1,choice,2,3,3.0,3,3,1,3,1.0
1039,1333,wb14e228,Solid,0.0,2636.0,1,2,1,choice,4,-1,3.0,3,3,3,3,1.0
1040,1334,wb14e228,Animal,0.0,1224.0,0,3,1,choice,3,1,1.0,3,3,2,3,-1.0
1041,1336,wb14e228,Animal,0.0,5159.0,1,1,2,choice,2,-3,2.0,5,5,1,2,1.0
1042,1337,wb14e228,Sea,0.0,5253.0,1,2,2,choice,1,-2,-2.0,5,5,1,1,-2.0
1043,1338,wb14e228,Large,0.0,1680.0,1,3,2,choice,3,-1,1.0,5,5,3,4,1.0
1044,1339,wb14e228,Pattern,1.0,2080.0,1,4,2,choice,4,1,3.0,5,5,4,4,3.0
1045,1340,wb14e228,Solid,1.0,7014.0,0,1,3,choice,2,-1,0.0,5,5,1,2,1.0
1046,1341,wb14e228,Small,1.0,3460.0,0,2,3,choice,4,-1,3.0,5,5,4,5,3.0
1047,1342,wb14e228,Sea,0.0,2916.0,1,3,3,choice,3,-5,-2.0,5,5,3,3,-2.0
1048,1343,wb14e228,Animal,1.0,3665.0,1,4,3,choice,1,1,2.0,5,5,1,1,2.0
1049,1344,wb14e228,Large,0.0,3741.0,0,1,4,choice,4,1,1.0,6,6,4,4,1.0
1050,1345,wb14e228,Object,0.0,4500.0,1,2,4,choice,2,-4,-4.0,6,6,2,2,-4.0
1051,1346,wb14e228,Solid,0.0,4439.0,1,3,4,choice,3,-2,-2.0,6,6,3,3,-2.0
1052,1347,wb14e228,Land,1.0,3030.0,1,4,4,choice,1,2,2.0,6,6,1,1,2.0
1053,1348,wb14e228,Small,1.0,4166.0,1,1,5,choice,2,1,1.0,6,6,2,2,1.0
1054,1349,wb14e228,Pattern,0.0,4455.0,0,2,5,choice,3,2,2.0,6,6,3,3,2.0
1055,1350,wb14e228,Animal,0.0,3602.0,0,3,5,choice,4,1,1.0,6,6,4,4,1.0
1056,1351,wb14e228,Land,1.0,4928.0,0,4,5,choice,1,-2,-2.0,6,6,1,1,-2.0
1057,1352,wb14e228,Solid,0.0,4125.0,1,1,6,choice,3,-1,-1.0,6,6,3,3,-1.0
1058,1353,wb14e228,Object,0.0,3459.0,1,2,6,choice,1,-1,-1.0,6,6,1,1,-1.0
1059,1354,wb14e228,Large,1.0,4287.0,1,3,6,choice,2,1,1.0,6,6,2,2,1.0
1060,1355,wb14e228,Land,1.0,4380.0,0,4,6,choice,4,-3,-3.0,6,6,4,4,-3.0
1061,1356,wb14e228,Pattern,1.0,2201.0,1,1,7,choice,4,3,1.0,6,6,4,4,1.0
1062,1357,wb14e228,Object,1.0,1799.0,1,2,7,choice,3,1,-1.0,6,6,3,3,-1.0
1063,1358,wb14e228,Sea,0.0,1306.0,1,3,7,choice,1,-1,-1.0,6,6,1,1,-1.0
1064,1359,wb14e228,Large,1.0,1484.0,1,4,7,choice,2,3,1.0,6,6,2,2,1.0
1065,1360,wed2778e,Small,1.0,3151.0,0,1,1,choice,1,-2,-1.0,6,6,1,1,-1.0
1066,1361,wed2778e,Animal,0.0,3645.0,0,2,1,choice,3,2,2.0,6,6,3,3,2.0
1067,1362,wed2778e,Land,0.0,1417.0,1,3,1,choice,2,-3,-2.0,6,6,2,2,-2.0
1068,1363,wed2778e,Solid,0.0,3618.0,1,4,1,choice,4,-3,-1.0,6,6,4,4,-1.0
1069,1364,wed2778e,Object,1.0,5091.0,1,1,2,choice,4,1,1.0,5,5,3,3,2.0
1070,1365,wed2778e,Small,0.0,3628.0,1,2,2,choice,3,-2,-2.0,5,5,3,3,-2.0
1071,1366,wed2778e,Pattern,0.0,4842.0,1,3,2,choice,1,-1,-1.0,5,5,1,1,-1.0
1072,1367,wed2778e,Land,0.0,4006.0,1,4,2,choice,2,-2,-2.0,5,5,1,1,-1.0
1073,1368,wed2778e,Object,0.0,5074.0,1,1,3,choice,4,-4,-5.0,6,6,4,4,-5.0
1074,1369,wed2778e,Solid,0.0,5212.0,1,2,3,choice,3,-3,-3.0,6,6,3,3,-3.0
1075,1370,wed2778e,Land,1.0,5045.0,1,3,3,choice,1,1,1.0,6,6,1,1,1.0
1076,1371,wed2778e,Large,0.0,3996.0,1,4,3,choice,2,-1,-1.0,6,6,2,2,-1.0
1077,1372,wed2778e,Animal,1.0,3735.0,1,1,4,choice,1,2,2.0,5,5,1,1,2.0
1078,1373,wed2778e,Pattern,0.0,3536.0,1,2,4,choice,4,-2,-1.0,5,5,3,3,0.0
1079,1374,wed2778e,Sea,1.0,3479.0,1,3,4,choice,3,3,3.0,5,5,2,2,4.0
1080,1375,wed2778e,Large,1.0,3803.0,1,4,4,choice,2,1,2.0,5,5,2,2,2.0
1081,1376,wed2778e,Sea,1.0,4146.0,1,1,5,choice,2,3,2.0,6,6,2,2,2.0
1082,1377,wed2778e,Object,0.0,5200.0,1,2,5,choice,3,-1,-1.0,6,6,3,3,-1.0
1083,1378,wed2778e,Large,1.0,3127.0,1,3,5,choice,1,2,2.0,6,6,1,1,2.0
1084,1379,wed2778e,Pattern,1.0,4629.0,1,4,5,choice,4,1,0.0,6,6,4,4,0.0
1085,1380,wed2778e,Small,0.0,4365.0,0,1,6,choice,2,1,1.0,6,6,2,2,1.0
1086,1381,wed2778e,Object,0.0,3446.0,1,2,6,choice,1,-2,-2.0,6,6,1,1,-2.0
1087,1382,wed2778e,Land,0.0,4684.0,1,3,6,choice,3,-1,0.0,6,6,3,3,0.0
1088,1383,wed2778e,Pattern,1.0,4466.0,1,4,6,choice,4,1,1.0,6,6,4,4,1.0
1089,1384,wed2778e,Animal,0.0,4004.0,1,1,7,choice,3,-1,-1.0,6,6,3,3,-1.0
1090,1385,wed2778e,Small,1.0,5175.0,1,2,7,choice,4,1,1.0,6,6,4,4,1.0
1091,1386,wed2778e,Sea,1.0,3541.0,1,3,7,choice,1,2,2.0,6,6,1,1,2.0
1092,1387,wed2778e,Solid,0.0,4604.0,1,4,7,choice,2,-3,-3.0,6,6,2,2,-3.0
1093,1388,w0a27d42,Animal,,,0,1,1,choice,3,-1,-4.0,4,4,1,2,-2.0
1094,1389,w0a27d42,Land,1.0,3421.0,1,2,1,choice,2,1,1.0,4,4,1,3,2.0
1095,1390,w0a27d42,Solid,1.0,2440.0,1,3,1,choice,4,5,1.0,4,4,3,4,2.0
1096,1391,w0a27d42,Small,1.0,4341.0,1,4,1,choice,1,2,2.0,4,4,1,2,2.0
1097,1392,w0a27d42,Sea,1.0,3173.0,1,1,2,choice,1,2,2.0,6,6,1,1,2.0
1098,1393,w0a27d42,Large,1.0,3930.0,1,2,2,choice,3,2,3.0,6,6,3,3,3.0
1099,1394,w0a27d42,Pattern,1.0,1413.0,1,3,2,choice,4,1,4.0,6,6,4,4,4.0
1100,1395,w0a27d42,Animal,0.0,2585.0,1,4,2,choice,2,-3,-2.0,6,6,2,2,-2.0
1101,1396,w0a27d42,Small,0.0,3572.0,0,1,3,choice,4,1,1.0,3,3,3,3,0.0
1102,1397,w0a27d42,Animal,0.0,4459.0,1,2,3,choice,1,-1,1.0,3,3,1,1,1.0
1103,1398,w0a27d42,Sea,0.0,2109.0,0,3,3,choice,3,5,-2.0,3,3,2,2,-1.0
1104,1399,w0a27d42,Solid,1.0,1124.0,1,4,3,choice,2,1,-4.0,3,3,1,1,-2.0
1105,1400,w0a27d42,Large,1.0,4309.0,0,1,4,choice,4,-2,2.0,5,5,3,4,4.0
1106,1401,w0a27d42,Land,0.0,2570.0,0,2,4,choice,1,1,1.0,5,5,1,2,1.0
1107,1402,w0a27d42,Object,1.0,1972.0,0,3,4,choice,2,-3,0.0,5,5,2,3,0.0
1108,1403,w0a27d42,Solid,1.0,2378.0,0,4,4,choice,3,-2,1.0,5,5,3,4,1.0
1109,1404,w0a27d42,Animal,0.0,3764.0,1,1,5,choice,4,-2,3.0,3,3,3,4,1.0
1110,1406,w0a27d42,Pattern,1.0,1380.0,1,3,5,choice,3,5,0.0,3,3,1,2,-2.0
1111,1407,w0a27d42,Small,1.0,2013.0,1,4,5,choice,2,1,3.0,3,3,1,2,2.0
1112,1408,w0a27d42,Object,0.0,5377.0,1,1,6,choice,1,-1,1.0,4,4,1,2,1.0
1113,1409,w0a27d42,Solid,1.0,1597.0,1,2,6,choice,3,1,2.0,4,4,2,3,3.0
1114,1410,w0a27d42,Land,1.0,1769.0,0,3,6,choice,4,-3,1.0,4,4,2,2,0.0
1115,1411,w0a27d42,Large,0.0,2529.0,1,4,6,choice,2,-2,0.0,4,4,2,3,0.0
1116,1412,w0a27d42,Large,1.0,4260.0,0,1,7,choice,2,-1,-3.0,4,4,1,2,-2.0
1117,1413,w0a27d42,Pattern,0.0,5790.0,1,2,7,choice,4,-2,-4.0,4,4,3,4,-3.0
1118,1414,w0a27d42,Sea,0.0,3838.0,0,3,7,choice,1,1,-2.0,4,4,1,3,-2.0
1119,1415,w0a27d42,Object,1.0,1460.0,0,4,7,choice,3,-3,0.0,4,4,3,4,0.0
1120,1417,wa90a378,Land,,,0,2,1,choice,2,3,3.0,4,4,1,3,2.0
1121,1418,wa90a378,Animal,0.0,2237.0,1,3,1,choice,3,-1,-2.0,4,4,2,4,0.0
1122,1419,wa90a378,Solid,1.0,2305.0,1,4,1,choice,4,3,3.0,4,4,3,3,2.0
1123,1420,wa90a378,Pattern,1.0,4223.0,1,1,2,choice,4,4,4.0,4,4,3,3,6.0
1124,1421,wa90a378,Sea,0.0,6023.0,0,2,2,choice,1,2,2.0,4,4,1,2,2.0
1125,1422,wa90a378,Animal,0.0,3151.0,1,3,2,choice,2,-4,-4.0,4,4,1,3,-2.0
1126,1423,wa90a378,Large,1.0,4028.0,1,4,2,choice,3,2,2.0,4,4,2,4,4.0
1127,1424,wa90a378,Small,,,0,1,3,choice,4,1,1.0,4,4,3,4,2.0
1128,1425,wa90a378,Sea,1.0,1106.0,0,2,3,choice,3,-5,-1.0,4,4,2,2,0.0
1129,1427,wa90a378,Animal,1.0,702.0,1,4,3,choice,1,2,2.0,4,4,1,1,2.0
1130,1428,wa90a378,Large,0.0,3656.0,1,1,4,choice,4,-2,-2.0,6,6,4,4,-2.0
1131,1429,wa90a378,Object,0.0,4674.0,0,2,4,choice,2,1,1.0,6,6,2,2,1.0
1132,1430,wa90a378,Land,0.0,3462.0,1,3,4,choice,1,-1,-1.0,6,6,1,1,-1.0
1133,1431,wa90a378,Solid,1.0,4813.0,1,4,4,choice,3,3,3.0,6,6,3,3,3.0
1134,1432,wa90a378,Small,,,0,1,5,choice,2,-2,-2.0,6,6,2,2,-2.0
1135,1433,wa90a378,Land,0.0,2473.0,1,2,5,choice,1,-2,-2.0,6,6,1,1,-2.0
1136,1434,wa90a378,Animal,1.0,4759.0,1,3,5,choice,4,1,1.0,6,6,4,4,1.0
1137,1435,wa90a378,Pattern,0.0,2088.0,0,4,5,choice,3,3,3.0,6,6,3,3,3.0
1138,1436,wa90a378,Land,0.0,1100.0,1,1,6,choice,4,-2,-2.0,5,5,3,3,-4.0
1139,1437,wa90a378,Object,0.0,5257.0,1,2,6,choice,1,-1,-1.0,5,5,1,1,-1.0
1140,1438,wa90a378,Large,1.0,2187.0,1,3,6,choice,2,1,1.0,5,5,1,2,-1.0
1141,1439,wa90a378,Solid,1.0,4458.0,0,4,6,choice,3,-1,-1.0,5,5,3,4,-1.0
1142,1440,wa90a378,Pattern,0.0,704.0,1,1,7,choice,4,-1,3.0,2,2,1,2,2.0
1143,1441,wa90a378,Large,1.0,79.0,0,2,7,choice,2,-1,0.0,2,2,1,4,2.0
1144,1442,wa90a378,Object,1.0,423.0,0,3,7,choice,3,-3,-1.0,2,2,1,3,-1.0
1145,1444,wf8bf1c3,Animal,0.0,3521.0,0,1,1,choice,3,1,1.0,5,5,3,3,1.0
1146,1445,wf8bf1c3,Small,1.0,5129.0,0,2,1,choice,1,-2,1.0,5,5,1,1,1.0
1147,1446,wf8bf1c3,Land,1.0,3615.0,0,3,1,choice,2,-1,-1.0,5,5,2,2,-1.0
1148,1447,wf8bf1c3,Solid,1.0,7111.0,0,4,1,choice,4,-1,2.0,5,5,4,4,2.0
1149,1448,wf8bf1c3,Object,,,0,1,2,choice,4,2,2.0,6,6,4,4,2.0
1150,1449,wf8bf1c3,Small,1.0,5446.0,0,2,2,choice,3,-1,-1.0,6,6,3,3,-1.0
1151,1450,wf8bf1c3,Land,1.0,2434.0,1,3,2,choice,2,2,2.0,6,6,2,2,2.0
1152,1451,wf8bf1c3,Pattern,1.0,2242.0,1,4,2,choice,1,1,1.0,6,6,1,1,1.0
1153,1452,wf8bf1c3,Object,0.0,2163.0,1,1,3,choice,4,-4,-6.0,5,5,3,3,-5.0
1154,1453,wf8bf1c3,Large,0.0,3496.0,1,2,3,choice,2,-1,-3.0,5,5,1,1,-2.0
1155,1454,wf8bf1c3,Solid,0.0,3181.0,0,3,3,choice,3,1,-1.0,5,5,2,2,0.0
1156,1455,wf8bf1c3,Land,1.0,2030.0,1,4,3,choice,1,2,2.0,5,5,1,1,2.0
1157,1456,wf8bf1c3,Large,0.0,2818.0,1,1,4,choice,2,-1,-1.0,6,6,2,2,-1.0
1158,1457,wf8bf1c3,Pattern,1.0,3332.0,1,2,4,choice,4,2,2.0,6,6,4,4,2.0
1159,1458,wf8bf1c3,Sea,0.0,2572.0,0,3,4,choice,3,1,1.0,6,6,3,3,1.0
1160,1459,wf8bf1c3,Animal,0.0,959.0,0,4,4,choice,1,1,1.0,6,6,1,1,1.0
1161,1460,wf8bf1c3,Sea,1.0,4787.0,1,1,5,choice,2,3,2.0,6,6,2,2,2.0
1162,1461,wf8bf1c3,Object,0.0,2133.0,1,2,5,choice,3,-3,-3.0,6,6,3,3,-3.0
1163,1462,wf8bf1c3,Large,0.0,1829.0,1,3,5,choice,1,-1,-1.0,6,6,1,1,-1.0
1164,1463,wf8bf1c3,Pattern,1.0,1879.0,1,4,5,choice,4,1,1.0,6,6,4,4,1.0
1165,1465,wf8bf1c3,Pattern,1.0,2567.0,1,2,6,choice,4,2,0.0,5,5,4,4,0.0
1166,1466,wf8bf1c3,Small,0.0,699.0,0,3,6,choice,2,3,3.0,5,5,2,2,3.0
1167,1467,wf8bf1c3,Land,0.0,611.0,1,4,6,choice,3,-1,-1.0,5,5,3,3,-1.0
1168,1468,wf8bf1c3,Sea,1.0,2768.0,1,1,7,choice,1,2,2.0,4,4,1,1,2.0
1169,1470,wf8bf1c3,Animal,0.0,3961.0,1,3,7,choice,3,-3,0.0,4,4,2,2,-1.0
1170,1471,wf8bf1c3,Small,0.0,2514.0,1,4,7,choice,4,-3,0.0,4,4,2,2,0.0
1171,1500,w8e5f535,Land,1.0,5287.0,1,1,1,choice,2,1,-1.0,3,3,2,2,-1.0
1172,1501,w8e5f535,Animal,0.0,4539.0,1,2,1,choice,3,-1,1.0,3,3,1,1,1.0
1173,1503,w8e5f535,Solid,0.0,2060.0,0,4,1,choice,4,5,0.0,3,3,2,2,-1.0
1174,1504,w8e5f535,Object,1.0,4133.0,1,1,2,choice,4,2,2.0,4,4,3,3,3.0
1175,1505,w8e5f535,Pattern,0.0,2850.0,0,2,2,choice,1,2,2.0,4,4,1,1,2.0
1176,1506,w8e5f535,Land,1.0,4740.0,1,3,2,choice,2,4,4.0,4,4,2,2,4.0
1177,1507,w8e5f535,Small,0.0,5182.0,1,4,2,choice,3,-1,-1.0,4,4,2,2,1.0
1178,1508,w8e5f535,Solid,1.0,4013.0,0,1,3,choice,3,-1,-1.0,5,5,3,3,-1.0
1179,1509,w8e5f535,Land,1.0,5961.0,1,2,3,choice,1,2,2.0,5,5,1,1,2.0
1180,1510,w8e5f535,Large,0.0,5021.0,1,3,3,choice,2,-1,0.0,5,5,2,2,0.0
1181,1511,w8e5f535,Object,,,0,4,3,choice,4,-1,0.0,5,5,3,3,-1.0
1182,1512,w8e5f535,Animal,1.0,5756.0,1,1,4,choice,1,1,2.0,6,6,1,1,2.0
1183,1513,w8e5f535,Pattern,1.0,4189.0,1,2,4,choice,4,2,3.0,6,6,4,4,3.0
1184,1514,w8e5f535,Sea,1.0,3968.0,1,3,4,choice,3,1,2.0,6,6,3,3,2.0
1185,1515,w8e5f535,Large,1.0,2444.0,0,4,4,choice,2,-1,4.0,6,6,2,2,4.0
1186,1516,w8e5f535,Object,1.0,4596.0,1,1,5,choice,3,2,2.0,4,4,2,3,4.0
1187,1517,w8e5f535,Sea,1.0,4273.0,1,2,5,choice,2,1,0.0,4,4,1,2,2.0
1188,1518,w8e5f535,Pattern,0.0,3479.0,0,3,5,choice,4,1,2.0,4,4,2,2,4.0
1189,1519,w8e5f535,Large,1.0,3767.0,0,4,5,choice,1,-1,2.0,4,4,1,1,2.0
1190,1520,w8e5f535,Object,0.0,4399.0,0,1,6,choice,1,1,2.0,4,4,1,1,2.0
1191,1521,w8e5f535,Pattern,1.0,1580.0,1,2,6,choice,4,1,1.0,4,4,2,2,1.0
1192,1522,w8e5f535,Land,1.0,3599.0,0,3,6,choice,3,-1,2.0,4,4,1,1,2.0
1193,1523,w8e5f535,Small,0.0,806.0,0,4,6,choice,2,1,1.0,4,4,1,1,2.0
1194,1524,w8e5f535,Small,,,0,1,7,choice,4,1,-3.0,3,3,1,1,-1.0
1195,1525,w8e5f535,Solid,0.0,3230.0,1,2,7,choice,2,-3,-3.0,3,3,1,1,-1.0
1196,1527,w8e5f535,Animal,0.0,1759.0,1,4,7,choice,3,-2,-5.0,3,3,1,1,-1.0
1197,1528,waa6a3c8,Animal,1.0,3959.0,0,1,1,choice,3,-3,3.0,3,3,2,3,3.0
1198,1529,waa6a3c8,Land,0.0,3453.0,1,2,1,choice,4,-1,4.0,3,3,2,4,3.0
1199,1530,waa6a3c8,Small,0.0,2180.0,1,3,1,choice,2,-4,2.0,3,3,1,3,2.0
1200,1533,waa6a3c8,Small,1.0,4780.0,0,2,2,choice,4,-1,-2.0,2,2,1,2,-2.0
1201,1534,waa6a3c8,Animal,0.0,5253.0,1,3,2,choice,2,-4,-4.0,2,2,1,2,-2.0
1202,1535,waa6a3c8,Sea,1.0,6677.0,0,4,2,choice,3,-3,-3.0,2,2,1,2,-2.0
1203,1536,waa6a3c8,Animal,0.0,5010.0,1,1,3,choice,3,-2,0.0,2,2,1,3,-2.0
1204,1537,waa6a3c8,Solid,1.0,2169.0,0,2,3,choice,1,-2,2.0,2,2,1,4,2.0
1205,1539,waa6a3c8,Large,1.0,1588.0,0,4,3,choice,4,-1,2.0,2,2,2,3,0.0
1206,1540,waa6a3c8,Large,1.0,2554.0,1,1,4,choice,4,2,0.0,4,4,3,5,1.0
1207,1542,waa6a3c8,Object,1.0,1732.0,1,3,4,choice,2,3,3.0,4,4,2,3,3.0
1208,1543,waa6a3c8,Sea,1.0,1435.0,1,4,4,choice,3,2,2.0,4,4,2,2,3.0
1209,1544,waa6a3c8,Object,0.0,2288.0,1,1,5,choice,4,-3,0.0,4,4,2,3,-1.0
1210,1545,waa6a3c8,Pattern,1.0,1250.0,0,2,5,choice,2,-1,3.0,4,4,1,3,1.0
1211,1546,waa6a3c8,Land,1.0,3158.0,1,3,5,choice,3,1,-3.0,4,4,3,4,-3.0
1212,1548,waa6a3c8,Solid,1.0,4610.0,1,1,6,choice,3,1,0.0,3,3,1,3,1.0
1213,1549,waa6a3c8,Object,1.0,1370.0,1,2,6,choice,1,2,1.0,3,3,1,3,1.0
1214,1550,waa6a3c8,Land,1.0,4899.0,0,3,6,choice,4,-1,1.0,3,3,3,4,0.0
1215,1551,waa6a3c8,Small,1.0,1661.0,1,4,6,choice,2,3,2.0,3,3,1,3,1.0
1216,1552,waa6a3c8,Solid,0.0,1898.0,0,1,7,choice,2,4,1.0,3,3,1,2,2.0
1217,1553,waa6a3c8,Large,1.0,1448.0,1,2,7,choice,3,3,2.0,3,3,2,3,3.0
1218,1554,waa6a3c8,Animal,1.0,843.0,1,3,7,choice,4,2,5.0,3,3,3,4,4.0
1219,1556,w80189d3,Animal,,,0,1,1,choice,4,5,1.0,4,4,3,3,2.0
1220,1557,w80189d3,Large,0.0,3638.0,1,2,1,choice,2,-3,-4.0,4,4,2,2,-4.0
1221,1558,w80189d3,Land,1.0,1456.0,0,3,1,choice,3,-1,-2.0,4,4,3,3,-2.0
1222,1559,w80189d3,Solid,0.0,2134.0,0,4,1,choice,1,2,2.0,4,4,1,1,2.0
1223,1560,w80189d3,Sea,1.0,4153.0,1,1,2,choice,2,3,3.0,2,2,1,1,1.0
1224,1561,w80189d3,Small,1.0,2596.0,1,2,2,choice,3,2,2.0,2,2,2,2,3.0
1225,1562,w80189d3,Animal,1.0,2677.0,0,3,2,choice,4,-1,2.0,2,2,1,2,2.0
1226,1563,w80189d3,Pattern,0.0,1347.0,0,4,2,choice,1,1,2.0,2,2,1,2,2.0
1227,1564,w80189d3,Pattern,1.0,4791.0,1,1,3,choice,3,2,-1.0,6,6,1,1,8.0
1228,1565,w80189d3,Object,1.0,1556.0,0,2,3,choice,4,-2,1.0,6,6,2,2,9.0
1229,1567,w80189d3,Large,1.0,421.0,0,4,3,choice,1,-2,2.0,6,6,1,1,8.0
1230,1568,w80189d3,Animal,1.0,1771.0,1,1,4,choice,4,1,0.0,2,2,1,2,2.0
1231,1569,w80189d3,Land,1.0,726.0,0,2,4,choice,1,-1,-1.0,2,2,1,2,-1.0
1232,1570,w80189d3,Small,1.0,460.0,1,3,4,choice,2,2,1.0,2,2,1,2,2.0
1233,1571,w80189d3,Solid,1.0,392.0,0,4,4,choice,3,-2,-1.0,2,2,1,2,2.0
1234,1572,w80189d3,Solid,1.0,2241.0,1,1,5,choice,3,1,1.0,2,2,1,2,2.0
1235,1573,w80189d3,Large,0.0,688.0,0,2,5,choice,2,4,-3.0,2,2,1,2,-1.0
1236,1575,w80189d3,Object,0.0,553.0,1,4,5,choice,4,-2,1.0,2,2,2,3,1.0
1237,1577,w80189d3,Pattern,1.0,726.0,1,2,6,choice,4,1,-4.0,2,2,2,5,-4.0
1238,1578,w80189d3,Land,1.0,1504.0,0,3,6,choice,3,-2,-1.0,2,2,1,4,-2.0
1239,1580,w80189d3,Small,1.0,3118.0,1,1,7,choice,1,2,-1.0,5,5,1,1,-1.0
1240,1581,w80189d3,Pattern,1.0,628.0,1,2,7,choice,4,2,-3.0,5,5,3,3,-2.0
1241,1582,w80189d3,Sea,1.0,704.0,0,3,7,choice,3,-1,0.0,5,5,3,3,0.0
1242,1583,w80189d3,Animal,1.0,626.0,1,4,7,choice,2,4,-3.0,5,5,2,3,-3.0
1243,1589,w6fe5d47,Solid,1.0,2206.0,1,2,1,choice,4,2,-4.0,2,2,1,1,-2.0
1244,1592,w6fe5d47,Sea,0.0,3491.0,0,1,2,choice,1,1,1.0,5,5,1,1,1.0
1245,1593,w6fe5d47,Animal,1.0,4599.0,0,2,2,choice,2,-4,0.0,5,5,1,1,1.0
1246,1594,w6fe5d47,Pattern,1.0,1412.0,1,3,2,choice,4,2,3.0,5,5,3,3,4.0
1247,1595,w6fe5d47,Large,1.0,608.0,1,4,2,choice,3,1,2.0,5,5,2,2,3.0
1248,1596,w6fe5d47,Sea,1.0,2474.0,1,1,3,choice,3,1,3.0,2,2,1,1,1.0
1249,1599,w6fe5d47,Small,1.0,1125.0,1,4,3,choice,4,2,2.0,2,2,1,1,1.0
1250,1600,w6fe5d47,Land,0.0,1791.0,0,1,5,choice,1,2,1.0,1,1,1,2,1.0
1251,1602,w6fe5d47,Animal,0.0,355.0,1,3,5,choice,4,-1,-2.0,1,1,1,2,1.0
1252,1604,w6fe5d47,Land,0.0,1349.0,1,1,6,choice,4,-4,2.0,1,1,1,1,1.0
1253,1607,w6fe5d47,Large,0.0,1616.0,1,4,6,choice,2,-3,2.0,1,1,1,2,1.0
1254,1608,w6fe5d47,Large,0.0,871.0,0,1,7,choice,2,4,1.0,2,2,1,1,2.0
1255,1609,w6fe5d47,Pattern,1.0,377.0,1,2,7,choice,4,1,3.0,2,2,1,1,2.0
1256,1611,w6fe5d47,Object,1.0,1350.0,0,4,7,choice,3,-1,5.0,2,2,1,1,2.0
1257,1612,w45af4af,Animal,1.0,2998.0,1,1,1,choice,3,2,-1.0,4,4,2,3,0.0
1258,1614,w45af4af,Small,1.0,1732.0,1,3,1,choice,2,2,0.0,4,4,2,2,0.0
1259,1615,w45af4af,Land,1.0,5056.0,1,4,1,choice,4,3,-2.0,4,4,3,4,-1.0
1260,1616,w45af4af,Pattern,0.0,3097.0,1,1,2,choice,1,-2,-2.0,5,5,1,1,-2.0
1261,1617,w45af4af,Animal,1.0,1950.0,0,2,2,choice,2,-1,-1.0,5,5,2,2,-1.0
1262,1618,w45af4af,Small,0.0,6030.0,1,3,2,choice,4,-1,-4.0,5,5,4,4,-4.0
1263,1619,w45af4af,Sea,1.0,1041.0,1,4,2,choice,3,1,1.0,5,5,3,3,1.0
1264,1620,w45af4af,Large,1.0,3466.0,0,1,3,choice,4,-1,-1.0,4,4,3,4,1.0
1265,1621,w45af4af,Animal,1.0,2731.0,0,2,3,choice,3,-1,-1.0,4,4,1,2,2.0
1266,1622,w45af4af,Sea,0.0,4449.0,0,3,3,choice,2,4,0.0,4,4,2,3,0.0
1267,1623,w45af4af,Solid,1.0,1333.0,1,4,3,choice,1,1,1.0,4,4,1,2,1.0
1268,1624,w45af4af,Large,1.0,2121.0,1,1,4,choice,4,1,0.0,5,5,4,4,0.0
1269,1625,w45af4af,Sea,1.0,3796.0,1,2,4,choice,3,3,1.0,5,5,2,2,0.0
1270,1626,w45af4af,Solid,0.0,2163.0,1,3,4,choice,1,-2,-2.0,5,5,1,1,-2.0
1271,1627,w45af4af,Object,0.0,4124.0,0,4,4,choice,2,1,-3.0,5,5,2,2,-3.0
1272,1629,w45af4af,Land,0.0,4149.0,1,2,5,choice,3,-2,-2.0,4,4,2,3,-1.0
1273,1630,w45af4af,Object,0.0,1857.0,0,3,5,choice,4,3,-6.0,4,4,2,3,-3.0
1274,1632,w45af4af,Solid,0.0,3471.0,1,1,6,choice,3,-2,-1.0,6,6,3,3,-1.0
1275,1633,w45af4af,Small,1.0,648.0,1,2,6,choice,2,4,4.0,6,6,2,2,4.0
1276,1634,w45af4af,Object,0.0,4876.0,0,3,6,choice,1,2,2.0,6,6,1,1,2.0
1277,1635,w45af4af,Land,0.0,4155.0,0,4,6,choice,4,3,1.0,6,6,4,4,1.0
1278,1636,w45af4af,Animal,0.0,2313.0,0,1,7,choice,4,1,-1.0,5,5,4,4,-1.0
1279,1637,w45af4af,Solid,1.0,2868.0,1,2,7,choice,2,1,0.0,5,5,2,2,0.0
1280,1638,w45af4af,Large,0.0,2000.0,1,3,7,choice,3,-1,-2.0,5,5,3,3,-2.0
1281,1639,w45af4af,Land,0.0,1999.0,0,4,7,choice,1,2,2.0,5,5,1,1,2.0
1282,1640,wb2e2d84,Land,1.0,3208.0,0,1,1,choice,2,-1,0.0,2,2,1,3,2.0
1283,1642,wb2e2d84,Solid,1.0,3877.0,0,3,1,choice,4,-1,3.0,2,2,2,2,4.0
1284,1643,wb2e2d84,Small,1.0,2549.0,1,4,1,choice,1,1,2.0,2,2,1,2,2.0
1285,1644,wb2e2d84,Large,0.0,3113.0,1,1,2,choice,3,-4,-2.0,4,4,1,3,2.0
1286,1645,wb2e2d84,Animal,1.0,1483.0,1,2,2,choice,2,1,-1.0,4,4,1,2,1.0
1287,1646,wb2e2d84,Pattern,0.0,2992.0,1,3,2,choice,4,-3,-3.0,4,4,2,2,1.0
1288,1649,wb2e2d84,Small,1.0,1780.0,0,2,3,choice,4,-2,-1.0,1,1,1,3,1.0
1289,1651,wb2e2d84,Sea,0.0,876.0,1,4,3,choice,3,-1,1.0,1,1,1,3,1.0
1290,1652,wb2e2d84,Object,1.0,1384.0,1,1,4,choice,2,1,0.0,5,5,2,3,0.0
1291,1653,wb2e2d84,Solid,1.0,2764.0,0,2,4,choice,3,-1,-1.0,5,5,3,3,-1.0
1292,1654,wb2e2d84,Land,1.0,1511.0,1,3,4,choice,1,1,1.0,5,5,1,1,1.0
1293,1655,wb2e2d84,Large,0.0,2303.0,1,4,4,choice,4,-1,0.0,5,5,3,3,-2.0
1294,1656,wb2e2d84,Animal,1.0,3012.0,0,1,5,choice,4,-3,0.0,3,3,2,3,3.0
1295,1657,wb2e2d84,Small,1.0,2372.0,1,2,5,choice,2,1,1.0,3,3,1,2,2.0
1296,1659,wb2e2d84,Pattern,0.0,1342.0,0,4,5,choice,3,5,2.0,3,3,2,3,3.0
1297,1660,wb2e2d84,Solid,1.0,3527.0,0,1,6,choice,3,-1,2.0,4,4,2,3,0.0
1298,1661,wb2e2d84,Large,0.0,1080.0,0,2,6,choice,2,1,3.0,4,4,1,3,1.0
1299,1663,wb2e2d84,Land,1.0,2611.0,1,4,6,choice,4,2,2.0,4,4,2,3,2.0
1300,1664,wb2e2d84,Large,0.0,1799.0,0,1,7,choice,2,1,2.0,3,3,2,4,2.0
1301,1665,wb2e2d84,Pattern,0.0,1925.0,0,2,7,choice,4,1,-1.0,3,3,2,3,2.0
1302,1666,wb2e2d84,Object,1.0,1006.0,1,3,7,choice,3,5,-3.0,3,3,1,2,1.0
1303,1668,w993543c,Land,1.0,2620.0,0,1,1,choice,4,-4,-4.0,3,3,3,4,-2.0
1304,1669,w993543c,Object,1.0,1575.0,0,2,1,choice,2,-1,0.0,3,3,2,4,0.0
1305,1670,w993543c,Pattern,0.0,1916.0,0,3,1,choice,3,2,1.0,3,3,1,3,1.0
1306,1672,w993543c,Solid,,,0,1,2,choice,4,-2,-2.0,6,6,4,4,-2.0
1307,1673,w993543c,Object,0.0,3566.0,1,2,2,choice,1,-2,-2.0,6,6,1,1,-2.0
1308,1674,w993543c,Large,1.0,3806.0,0,3,2,choice,3,-4,-4.0,6,6,3,3,-4.0
1309,1675,w993543c,Sea,0.0,7195.0,0,4,2,choice,2,1,1.0,6,6,2,2,1.0
1310,1676,w993543c,Animal,1.0,4711.0,1,1,3,choice,4,3,3.0,4,4,2,2,2.0
1311,1677,w993543c,Land,1.0,4112.0,0,2,3,choice,3,-2,1.0,4,4,2,2,2.0
1312,1679,w993543c,Pattern,1.0,2532.0,0,4,3,choice,2,-1,2.0,4,4,2,2,2.0
1313,1680,w993543c,Large,0.0,4806.0,1,1,4,choice,3,-2,-2.0,5,5,2,2,0.0
1314,1681,w993543c,Pattern,0.0,1450.0,1,2,4,choice,2,-1,-1.0,5,5,1,1,1.0
1315,1682,w993543c,Land,1.0,3394.0,1,3,4,choice,1,1,1.0,5,5,1,1,1.0
1316,1683,w993543c,Object,1.0,1495.0,1,4,4,choice,4,1,1.0,5,5,3,3,3.0
1317,1685,w993543c,Small,1.0,3542.0,0,2,5,choice,4,-3,-5.0,4,4,2,2,-2.0
1318,1686,w993543c,Animal,1.0,2727.0,1,3,5,choice,3,1,-1.0,4,4,3,3,-1.0
1319,1687,w993543c,Sea,0.0,1452.0,1,4,5,choice,2,-3,-3.0,4,4,1,1,-2.0
1320,1688,w993543c,Solid,1.0,3263.0,0,1,6,choice,1,-2,-2.0,5,5,1,1,-2.0
1321,1689,w993543c,Sea,0.0,146.0,1,2,6,choice,3,-3,-3.0,5,5,2,2,-4.0
1322,1690,w993543c,Large,1.0,1726.0,1,3,6,choice,2,2,2.0,5,5,1,1,1.0
1323,1691,w993543c,Animal,1.0,1222.0,0,4,6,choice,4,-5,-5.0,5,5,4,4,-5.0
1324,1692,w993543c,Solid,0.0,4144.0,1,1,7,choice,2,-1,-3.0,3,3,1,1,-2.0
1325,1693,w993543c,Land,1.0,2349.0,0,2,7,choice,3,-2,-3.0,3,3,2,2,-1.0
1326,1694,w993543c,Small,0.0,2127.0,0,3,7,choice,4,1,-1.0,3,3,2,2,-1.0
1327,1695,w993543c,Animal,1.0,4148.0,1,4,7,choice,1,1,1.0,3,3,1,1,1.0
1328,1696,wdb97422,Animal,1.0,7136.0,0,1,1,choice,4,-3,3.0,3,3,2,4,1.0
1329,1697,wdb97422,Land,,,0,2,1,choice,3,-1,1.0,3,3,1,2,2.0
1330,1698,wdb97422,Solid,1.0,2774.0,0,3,1,choice,1,-2,-1.0,3,3,1,3,-1.0
1331,1699,wdb97422,Large,0.0,2831.0,0,4,1,choice,2,1,0.0,3,3,1,3,2.0
1332,1700,wdb97422,Animal,0.0,2362.0,1,1,2,choice,4,-4,-4.0,5,5,3,3,-5.0
1333,1701,wdb97422,Small,1.0,3706.0,1,2,2,choice,3,1,1.0,5,5,2,2,0.0
1334,1702,wdb97422,Sea,1.0,5930.0,0,3,2,choice,2,-1,-1.0,5,5,2,2,-1.0
1335,1703,wdb97422,Pattern,0.0,4348.0,1,4,2,choice,1,-2,-1.0,5,5,1,1,-1.0
1336,1704,wdb97422,Pattern,0.0,4063.0,1,1,3,choice,3,-1,-2.0,3,3,2,2,-1.0
1337,1705,wdb97422,Object,1.0,3214.0,0,2,3,choice,4,-1,1.0,3,3,3,3,0.0
1338,1706,wdb97422,Large,0.0,5030.0,0,3,3,choice,1,2,-2.0,3,3,1,1,-2.0
1339,1707,wdb97422,Land,0.0,2153.0,1,4,3,choice,2,-4,2.0,3,3,1,1,1.0
1340,1708,wdb97422,Solid,1.0,2823.0,0,1,4,choice,3,-2,4.0,2,2,1,1,1.0
1341,1709,wdb97422,Animal,0.0,3545.0,0,2,4,choice,4,2,1.0,2,2,1,1,1.0
1342,1710,wdb97422,Land,1.0,1491.0,0,3,4,choice,1,-1,1.0,2,2,1,1,1.0
1343,1713,wdb97422,Large,0.0,1674.0,1,2,5,choice,2,-3,-3.0,3,3,1,1,-1.0
1344,1714,wdb97422,Object,1.0,1112.0,1,3,5,choice,4,1,1.0,3,3,3,3,3.0
1345,1715,wdb97422,Sea,0.0,4134.0,0,4,5,choice,1,2,2.0,3,3,1,2,2.0
1346,1716,wdb97422,Pattern,0.0,4353.0,1,1,6,choice,4,-1,-1.0,4,4,2,2,0.0
1347,1717,wdb97422,Land,1.0,5781.0,0,2,6,choice,3,-2,-2.0,4,4,2,2,0.0
1348,1719,wdb97422,Large,0.0,1057.0,1,4,6,choice,2,-3,-3.0,4,4,1,1,-1.0
1349,1721,wdb97422,Pattern,0.0,2431.0,1,2,7,choice,4,-1,-5.0,3,3,2,3,-2.0
1350,1722,wdb97422,Small,0.0,3702.0,1,3,7,choice,1,-1,-1.0,3,3,1,2,-1.0
1351,1723,wdb97422,Animal,1.0,2383.0,1,4,7,choice,2,1,-3.0,3,3,1,2,-1.0
1352,1749,wbf6ee18,Animal,1.0,2092.0,0,2,1,choice,3,-2,5.0,2,2,1,1,2.0
1353,1750,wbf6ee18,Solid,1.0,3594.0,0,3,1,choice,4,-2,2.0,2,2,1,1,2.0
1354,1752,wbf6ee18,Large,0.0,3593.0,0,1,2,choice,3,2,-1.0,4,4,2,4,-3.0
1355,1753,wbf6ee18,Animal,1.0,1131.0,1,2,2,choice,2,3,1.0,4,4,1,3,-1.0
1356,1754,wbf6ee18,Sea,1.0,1651.0,0,3,2,choice,1,-1,-2.0,4,4,1,2,-2.0
1357,1755,wbf6ee18,Pattern,1.0,1064.0,1,4,2,choice,4,1,-3.0,4,4,2,2,-3.0
1358,1756,wbf6ee18,Small,1.0,1675.0,1,1,3,choice,4,2,1.0,2,2,2,3,1.0
1359,1757,wbf6ee18,Sea,0.0,2954.0,1,2,3,choice,3,-2,-4.0,2,2,1,1,-1.0
1360,1759,wbf6ee18,Animal,1.0,2153.0,1,4,3,choice,1,2,2.0,2,2,1,3,2.0
1361,1761,wbf6ee18,Animal,1.0,1136.0,0,2,5,choice,4,-1,4.0,2,2,1,3,-1.0
1362,1762,wbf6ee18,Pattern,1.0,1158.0,0,3,5,choice,3,-1,-1.0,2,2,1,5,-2.0
1363,1763,wbf6ee18,Land,1.0,2230.0,0,4,5,choice,1,-2,-1.0,2,2,1,5,-1.0
1364,1764,wbf6ee18,Solid,0.0,3723.0,1,1,6,choice,3,-2,-1.0,1,1,1,3,2.0
1365,1767,wbf6ee18,Land,1.0,2001.0,1,4,6,choice,4,3,1.0,1,1,1,4,2.0
1366,1768,wbf6ee18,Large,0.0,1699.0,0,1,7,choice,2,3,1.0,2,2,2,5,1.0
1367,1769,wbf6ee18,Pattern,1.0,1187.0,1,2,7,choice,4,4,-2.0,2,2,2,4,1.0
1368,1771,wbf6ee18,Object,0.0,1807.0,0,4,7,choice,3,2,1.0,2,2,1,2,2.0
1369,1772,w9a48bb6,Solid,1.0,2949.0,0,1,1,choice,4,-1,1.0,5,5,4,4,1.0
1370,1773,w9a48bb6,Small,0.0,2180.0,1,2,1,choice,1,-2,-2.0,5,5,1,2,-2.0
1371,1774,w9a48bb6,Animal,1.0,6443.0,1,3,1,choice,3,1,1.0,5,5,3,3,1.0
1372,1775,w9a48bb6,Land,1.0,2356.0,0,4,1,choice,2,-1,-1.0,5,5,2,2,-1.0
1373,1776,w9a48bb6,Pattern,0.0,3457.0,0,1,2,choice,4,1,-1.0,3,3,2,3,1.0
1374,1777,w9a48bb6,Large,0.0,3965.0,1,2,2,choice,3,-1,-3.0,3,3,1,2,-1.0
1375,1779,w9a48bb6,Animal,1.0,1692.0,1,4,2,choice,2,1,1.0,3,3,1,2,2.0
1376,1780,w9a48bb6,Small,0.0,6862.0,0,1,3,choice,4,1,0.0,6,6,4,4,0.0
1377,1781,w9a48bb6,Sea,0.0,4744.0,1,2,3,choice,3,-1,-2.0,6,6,3,3,-2.0
1378,1782,w9a48bb6,Solid,1.0,5326.0,0,3,3,choice,2,-2,-3.0,6,6,2,2,-3.0
1379,1783,w9a48bb6,Animal,0.0,4093.0,0,4,3,choice,1,1,1.0,6,6,1,1,1.0
1380,1784,w9a48bb6,Solid,1.0,2383.0,0,1,4,choice,3,-1,2.0,3,3,1,2,2.0
1381,1785,w9a48bb6,Large,0.0,3954.0,1,2,4,choice,4,-2,0.0,3,3,2,3,0.0
1382,1786,w9a48bb6,Object,1.0,5982.0,1,3,4,choice,2,1,3.0,3,3,1,2,2.0
1383,1787,w9a48bb6,Land,0.0,1615.0,1,4,4,choice,1,-1,-1.0,3,3,1,2,-1.0
1384,1788,w9a48bb6,Animal,0.0,4803.0,1,1,5,choice,4,-2,-2.0,4,4,3,3,-1.0
1385,1789,w9a48bb6,Land,0.0,3649.0,1,2,5,choice,1,-1,-1.0,4,4,1,1,-1.0
1386,1790,w9a48bb6,Pattern,1.0,1136.0,1,3,5,choice,3,6,4.0,4,4,2,2,3.0
1387,1791,w9a48bb6,Small,1.0,1233.0,1,4,5,choice,2,1,0.0,4,4,1,1,1.0
1388,1793,w9a48bb6,Land,1.0,4151.0,1,2,6,choice,4,1,1.0,3,3,2,2,3.0
1389,1794,w9a48bb6,Large,0.0,4640.0,0,3,6,choice,2,1,1.0,3,3,1,1,2.0
1390,1796,w9a48bb6,Sea,0.0,3778.0,0,1,7,choice,1,2,1.0,3,3,1,2,1.0
1391,1797,w9a48bb6,Large,0.0,3259.0,1,2,7,choice,2,-2,-2.0,3,3,1,1,-1.0
1392,1798,w9a48bb6,Object,0.0,5385.0,0,3,7,choice,3,3,2.0,3,3,2,2,1.0
1393,1799,w9a48bb6,Pattern,1.0,1127.0,1,4,7,choice,4,2,1.0,3,3,3,3,2.0
1394,1800,wdc0f604,Solid,1.0,2978.0,0,1,1,choice,1,-1,-1.0,4,4,1,2,-1.0
1395,1801,wdc0f604,Large,1.0,3259.0,1,2,1,choice,2,3,2.0,4,4,1,2,1.0
1396,1802,wdc0f604,Land,0.0,1888.0,0,3,1,choice,3,5,1.0,4,4,2,3,0.0
1397,1803,wdc0f604,Animal,1.0,1411.0,1,4,1,choice,4,1,1.0,4,4,2,4,-2.0
1398,1804,wdc0f604,Sea,1.0,2916.0,0,1,2,choice,2,-1,-2.0,4,4,1,3,-1.0
1399,1805,wdc0f604,Small,0.0,3201.0,1,2,2,choice,3,-1,-2.0,4,4,2,3,-3.0
1400,1807,wdc0f604,Animal,1.0,2104.0,1,4,2,choice,4,1,0.0,4,4,2,4,0.0
1401,1808,wdc0f604,Object,0.0,6504.0,1,1,3,choice,4,-1,1.0,4,4,2,3,1.0
1402,1809,wdc0f604,Large,1.0,1294.0,1,2,3,choice,1,2,2.0,4,4,1,2,2.0
1403,1810,wdc0f604,Pattern,1.0,2252.0,1,3,3,choice,3,2,2.0,4,4,2,4,3.0
1404,1812,wdc0f604,Small,,,0,1,4,choice,2,4,3.0,2,2,1,4,1.0
1405,1813,wdc0f604,Animal,1.0,2541.0,1,2,4,choice,4,1,4.0,2,2,2,3,3.0
1406,1814,wdc0f604,Solid,1.0,1387.0,1,3,4,choice,3,2,1.0,2,2,1,2,1.0
1407,1816,wdc0f604,Large,1.0,2972.0,1,1,5,choice,2,4,4.0,5,5,2,2,4.0
1408,1817,wdc0f604,Object,0.0,6990.0,1,2,5,choice,4,-2,-1.0,5,5,3,3,1.0
1409,1818,wdc0f604,Sea,1.0,7023.0,0,3,5,choice,1,-1,1.0,5,5,1,1,1.0
1410,1819,wdc0f604,Solid,1.0,2467.0,1,4,5,choice,3,2,1.0,5,5,2,2,3.0
1411,1820,wdc0f604,Land,1.0,3108.0,1,1,6,choice,3,1,2.0,2,2,2,4,1.0
1412,1821,wdc0f604,Pattern,0.0,1725.0,1,2,6,choice,4,-4,-2.0,2,2,1,2,-1.0
1413,1822,wdc0f604,Large,1.0,7233.0,1,3,6,choice,2,3,3.0,2,2,1,3,2.0
1414,1824,wdc0f604,Animal,1.0,3884.0,1,1,7,choice,2,1,0.0,5,5,1,2,1.0
1415,1825,wdc0f604,Pattern,1.0,3521.0,0,2,7,choice,4,-2,0.0,5,5,3,3,-1.0
1416,1826,wdc0f604,Sea,0.0,1504.0,0,3,7,choice,3,2,-4.0,5,5,1,2,-4.0
1417,1827,wdc0f604,Small,1.0,2322.0,0,4,7,choice,1,-1,1.0,5,5,1,2,1.0
1418,1856,w107fce5,Object,1.0,3875.0,0,1,1,choice,4,-1,1.0,3,3,2,4,1.0
1419,1858,w107fce5,Sea,1.0,3556.0,0,3,1,choice,3,-2,2.0,3,3,1,1,2.0
1420,1859,w107fce5,Large,1.0,5300.0,1,4,1,choice,1,2,2.0,3,3,1,3,2.0
1421,1860,w107fce5,Solid,,,0,1,2,choice,4,1,1.0,4,4,2,2,0.0
1422,1861,w107fce5,Large,1.0,6106.0,0,2,2,choice,1,-1,-1.0,4,4,1,1,-1.0
1423,1862,w107fce5,Animal,0.0,3865.0,0,3,2,choice,3,2,0.0,4,4,2,2,-2.0
1424,1863,w107fce5,Sea,0.0,1556.0,1,4,2,choice,2,-2,-2.0,4,4,1,1,-1.0
1425,1864,w107fce5,Large,0.0,1361.0,1,1,3,choice,4,-4,1.0,2,2,1,1,-1.0
1426,1865,w107fce5,Animal,0.0,15.0,1,2,3,choice,2,-4,-2.0,2,2,1,2,-1.0
1427,1869,w107fce5,Animal,0.0,924.0,1,2,4,choice,4,-2,-2.0,1,1,1,1,-1.0
1428,1870,w107fce5,Sea,0.0,1745.0,1,3,4,choice,2,-1,0.0,1,1,1,1,-1.0
1429,1871,w107fce5,Pattern,0.0,796.0,0,4,4,choice,3,4,2.0,1,1,1,1,-1.0
1430,1873,w107fce5,Land,1.0,2948.0,1,2,5,choice,2,3,-3.0,2,2,1,1,-2.0
1431,1874,w107fce5,Large,1.0,1548.0,1,3,5,choice,4,1,-2.0,2,2,2,2,-3.0
1432,1875,w107fce5,Object,,,0,4,5,choice,3,3,-1.0,2,2,1,1,-2.0
1433,1876,w107fce5,Object,0.0,1048.0,1,1,6,choice,3,-2,-5.0,2,2,1,1,-2.0
1434,1877,w107fce5,Pattern,1.0,3145.0,0,2,6,choice,2,-3,-4.0,2,2,2,2,-4.0
1435,1879,w107fce5,Land,0.0,188.0,1,4,6,choice,4,-3,-7.0,2,2,2,2,-4.0
1436,1880,w107fce5,Small,0.0,1388.0,0,1,7,choice,4,2,2.0,2,2,1,1,-1.0
1437,1881,w107fce5,Land,1.0,331.0,0,2,7,choice,1,-1,-1.0,2,2,1,2,-1.0
1438,1882,w107fce5,Object,0.0,509.0,0,3,7,choice,3,3,-1.0,2,2,1,2,-1.0
1439,1883,w107fce5,Solid,0.0,468.0,1,4,7,choice,2,-2,1.0,2,2,1,1,-1.0
1440,1884,w9be1ae9,Large,1.0,2965.0,0,1,1,choice,2,-1,-3.0,2,2,1,2,-2.0
1441,1887,w9be1ae9,Land,1.0,1885.0,1,4,1,choice,3,1,-1.0,2,2,1,3,-2.0
1442,1888,w9be1ae9,Pattern,1.0,1702.0,1,1,2,choice,1,1,-1.0,3,3,1,3,-1.0
1443,1890,w9be1ae9,Small,0.0,520.0,1,3,2,choice,3,-2,1.0,3,3,2,2,0.0
1444,1891,w9be1ae9,Animal,1.0,513.0,1,4,2,choice,4,2,0.0,3,3,3,3,-2.0
1445,1892,w9be1ae9,Land,0.0,2380.0,1,1,3,choice,2,-3,1.0,2,2,1,3,-1.0
1446,1893,w9be1ae9,Large,1.0,1078.0,1,2,3,choice,1,2,1.0,2,2,1,2,1.0
1447,1894,w9be1ae9,Pattern,0.0,1139.0,0,3,3,choice,3,1,4.0,2,2,1,1,1.0
1448,1895,w9be1ae9,Object,0.0,924.0,0,4,3,choice,4,1,3.0,2,2,2,2,0.0
1449,1896,w9be1ae9,Solid,1.0,1702.0,1,1,4,choice,3,3,3.0,4,4,3,3,3.0
