,index,wid,option,choice,rt,correct,trial_number,game,phase,n_true_memories,n_considered,value,remembered_value,n_total_memories_shown,n_total_memories,n_remembered_shown,n_remembered
0,0,w2d80146,Red,1.0,5146.0,1,1,1,choice,1,1,6,-8.0,5,5,1,2
1,1,w2d80146,Yellow,0.0,5130.0,1,2,1,choice,2,1,-4,13.0,5,5,1,1
2,2,w2d80146,Object,0.0,2796.0,1,3,1,choice,1,2,-7,-7.0,5,5,1,2
3,3,w2d80146,Scene,1.0,1079.0,1,4,1,choice,2,2,2,13.0,5,5,2,2
4,4,w2d80146,Blue,1.0,2536.0,0,5,1,choice,3,6,-2,-6.0,5,5,3,3
5,5,w2d80146,Animal,1.0,3475.0,1,6,1,choice,3,2,5,-7.0,5,5,2,2
6,6,w2d80146,Food,1.0,5002.0,0,1,2,choice,1,0,-2,-2.0,4,4,0,0
7,7,w2d80146,Object,1.0,2951.0,1,2,2,choice,3,1,3,-7.0,4,4,3,3
8,8,w2d80146,Red,0.0,2417.0,1,3,2,choice,2,2,-5,-3.0,4,4,2,2
9,9,w2d80146,Blue,0.0,2888.0,1,4,2,choice,3,2,-1,-4.0,4,4,1,1
10,10,w2d80146,Yellow,1.0,2316.0,1,5,2,choice,1,1,6,6.0,4,4,1,2
11,11,w2d80146,Scene,1.0,2522.0,0,6,2,choice,2,1,-1,8.0,4,4,1,1
12,12,w2d80146,Yellow,1.0,1367.0,0,1,3,choice,3,2,-1,7.0,5,5,2,2
13,13,w2d80146,Food,0.0,2510.0,1,2,3,choice,1,1,-2,3.0,5,5,0,0
14,14,w2d80146,Green,1.0,2151.0,1,3,3,choice,2,2,1,13.0,5,5,2,2
15,15,w2d80146,Object,1.0,2405.0,1,4,3,choice,2,2,6,6.0,5,5,2,2
16,16,w2d80146,Red,1.0,3084.0,1,5,3,choice,1,1,7,4.0,5,5,1,1
17,17,w2d80146,Scene,1.0,1877.0,1,6,3,choice,3,3,3,15.0,5,5,3,3
18,18,w2d80146,Object,1.0,2800.0,1,1,4,choice,2,1,5,14.0,1,1,1,1
19,19,w2d80146,Red,1.0,2676.0,1,2,4,choice,3,0,1,5.0,1,1,0,0
20,20,w2d80146,Food,0.0,3301.0,1,3,4,choice,3,1,-3,9.0,1,1,0,1
21,21,w2d80146,Green,1.0,2773.0,1,4,4,choice,2,2,8,16.0,1,1,1,2
22,22,w2d80146,Animal,0.0,3971.0,0,5,4,choice,1,0,3,-4.0,1,1,0,0
23,23,w2d80146,Blue,1.0,4153.0,0,6,4,choice,1,1,-4,-2.0,1,1,0,1
24,24,w2d80146,Green,1.0,1240.0,1,1,5,choice,3,2,1,4.0,3,3,1,2
25,25,w2d80146,Blue,0.0,1918.0,1,2,5,choice,1,1,-8,-4.0,3,3,1,1
26,26,w2d80146,Animal,1.0,3485.0,0,3,5,choice,3,2,-5,8.0,3,3,2,2
27,27,w2d80146,Food,0.0,3233.0,0,4,5,choice,2,1,1,3.0,3,3,0,0
28,28,w2d80146,Scene,0.0,2464.0,0,5,5,choice,1,1,4,-4.0,3,3,1,1
29,29,w2d80146,Yellow,1.0,1736.0,1,6,5,choice,2,1,7,7.0,3,3,1,1
30,30,w7a04fdc,Scene,1.0,1441.0,1,1,2,choice,2,1,1,0.0,2,2,0,0
31,31,w7a04fdc,Animal,0.0,813.0,0,2,2,choice,1,1,8,0.0,2,2,1,1
32,32,w7a04fdc,Blue,1.0,850.0,1,3,2,choice,1,2,9,0.0,2,2,0,0
33,33,w7a04fdc,Red,1.0,1035.0,0,4,2,choice,2,3,-2,0.0,2,2,1,1
34,34,w7a04fdc,Food,1.0,402.0,0,5,2,choice,3,5,-3,0.0,2,2,1,1
35,35,w7a04fdc,Green,1.0,451.0,0,6,2,choice,3,2,-1,0.0,2,2,1,1
36,36,w7a04fdc,Yellow,1.0,2977.0,1,1,3,choice,3,1,3,0.0,1,1,1,1
37,37,w7a04fdc,Scene,0.0,500.0,0,2,3,choice,2,1,1,0.0,1,1,0,1
38,38,w7a04fdc,Food,1.0,2344.0,1,3,3,choice,1,1,4,0.0,1,1,1,2
39,39,w7a04fdc,Blue,0.0,744.0,0,4,3,choice,2,1,3,0.0,1,1,0,0
40,40,w7a04fdc,Object,1.0,837.0,0,5,3,choice,3,1,-1,0.0,1,1,0,0
41,41,w7a04fdc,Green,1.0,814.0,0,6,3,choice,1,1,-2,0.0,1,1,0,0
42,42,w7a04fdc,Animal,1.0,1442.0,1,1,4,choice,2,1,3,0.0,2,2,1,1
43,43,w7a04fdc,Scene,0.0,197.0,0,2,4,choice,1,1,5,0.0,2,2,0,0
44,44,w7a04fdc,Food,1.0,550.0,0,3,4,choice,3,1,-1,0.0,2,2,1,1
45,45,w7a04fdc,Blue,1.0,847.0,1,4,4,choice,2,1,7,0.0,2,2,0,0
46,46,w7a04fdc,Green,1.0,1936.0,1,5,4,choice,3,1,2,0.0,2,2,1,1
47,47,w7a04fdc,Red,0.0,503.0,1,6,4,choice,1,1,-2,0.0,2,2,1,1
48,78,wca8e71a,Object,,,0,1,1,choice,3,1,-4,-6.0,6,6,3,3
49,79,wca8e71a,Blue,1.0,1851.0,1,2,1,choice,2,1,3,-3.0,6,6,2,2
50,80,wca8e71a,Yellow,0.0,1548.0,1,3,1,choice,3,1,-1,-3.0,6,6,3,3
51,81,wca8e71a,Red,1.0,795.0,1,4,1,choice,1,1,7,7.0,6,6,1,1
52,82,wca8e71a,Scene,1.0,2715.0,1,5,1,choice,2,2,5,1.0,6,6,2,2
53,83,wca8e71a,Animal,0.0,1786.0,0,6,1,choice,1,1,8,6.0,6,6,1,1
54,84,wca8e71a,Scene,1.0,1267.0,1,1,2,choice,3,3,2,4.0,5,5,3,4
55,85,wca8e71a,Yellow,0.0,953.0,1,2,2,choice,1,1,-8,-7.0,5,5,1,1
56,86,wca8e71a,Red,0.0,625.0,0,3,2,choice,3,2,2,-8.0,5,5,2,2
57,87,wca8e71a,Food,0.0,1342.0,1,4,2,choice,1,1,-7,-8.0,5,5,1,1
58,88,wca8e71a,Green,1.0,2096.0,1,5,2,choice,2,2,3,3.0,5,5,2,2
59,89,wca8e71a,Object,0.0,1565.0,0,6,2,choice,2,1,2,-8.0,5,5,1,1
60,90,wca8e71a,Green,0.0,1998.0,1,1,3,choice,1,1,-3,-3.0,5,5,0,0
61,91,wca8e71a,Food,0.0,899.0,1,2,3,choice,3,2,-2,0.0,5,5,2,2
62,92,wca8e71a,Animal,1.0,947.0,0,3,3,choice,2,2,-7,5.0,5,5,2,2
63,93,wca8e71a,Blue,0.0,1100.0,1,4,3,choice,2,1,-3,-3.0,5,5,2,2
64,94,wca8e71a,Scene,1.0,2020.0,1,5,3,choice,1,1,6,5.0,5,5,1,2
65,95,wca8e71a,Red,1.0,588.0,1,6,3,choice,3,3,3,16.0,5,5,3,3
66,96,wca8e71a,Object,1.0,1749.0,0,1,4,choice,2,2,-2,-6.0,6,6,2,2
67,97,wca8e71a,Blue,0.0,1811.0,1,2,4,choice,2,1,-4,-4.0,6,6,2,2
68,98,wca8e71a,Yellow,0.0,2078.0,1,3,4,choice,3,2,-1,5.0,6,6,3,3
69,99,wca8e71a,Animal,1.0,1903.0,0,4,4,choice,3,2,-1,-3.0,6,6,3,3
70,100,wca8e71a,Green,0.0,939.0,0,5,4,choice,1,1,8,-4.0,6,6,1,1
71,101,wca8e71a,Food,1.0,1607.0,1,6,4,choice,1,1,6,6.0,6,6,1,1
72,102,wca8e71a,Animal,0.0,2031.0,1,1,5,choice,1,1,-9,-9.0,4,4,1,1
73,103,wca8e71a,Green,0.0,725.0,0,2,5,choice,3,2,3,-4.0,4,4,2,2
74,104,wca8e71a,Blue,0.0,1880.0,0,3,5,choice,2,1,2,0.0,4,4,2,2
75,105,wca8e71a,Scene,1.0,2076.0,1,4,5,choice,2,2,5,5.0,4,4,2,4
76,106,wca8e71a,Yellow,0.0,1643.0,1,5,5,choice,1,1,-6,-6.0,4,4,0,1
77,107,wca8e71a,Food,0.0,1605.0,0,6,5,choice,3,1,3,-6.0,4,4,1,1
78,108,wbcfaf6a,Red,,,0,1,1,choice,2,3,-3,-5.0,4,4,2,2
79,109,wbcfaf6a,Animal,1.0,3976.0,0,2,1,choice,3,4,-5,11.0,4,4,2,2
80,110,wbcfaf6a,Green,0.0,3081.0,0,3,1,choice,1,3,9,9.0,4,4,1,2
81,111,wbcfaf6a,Blue,1.0,4544.0,0,4,1,choice,3,3,-1,15.0,4,4,1,1
82,112,wbcfaf6a,Scene,0.0,3289.0,0,5,1,choice,2,3,3,1.0,4,4,1,1
83,113,wbcfaf6a,Food,1.0,3112.0,1,6,1,choice,1,4,7,7.0,4,4,1,1
84,114,wbcfaf6a,Red,1.0,5669.0,1,1,2,choice,1,2,3,3.0,4,4,1,2
85,115,wbcfaf6a,Yellow,0.0,5806.0,1,2,2,choice,3,2,-1,-14.0,4,4,2,2
86,116,wbcfaf6a,Animal,1.0,4361.0,0,3,2,choice,1,2,-2,-2.0,4,4,1,2
87,117,wbcfaf6a,Scene,0.0,2153.0,1,4,2,choice,2,2,-3,-4.0,4,4,1,1
88,118,wbcfaf6a,Food,1.0,2880.0,1,5,2,choice,3,2,2,1.0,4,4,1,1
89,119,wbcfaf6a,Green,1.0,2713.0,0,6,2,choice,2,1,-5,6.0,4,4,0,0
90,120,wbcfaf6a,Object,1.0,4726.0,0,1,3,choice,1,0,-9,-2.0,3,3,0,0
91,121,wbcfaf6a,Blue,0.0,3146.0,1,2,3,choice,1,2,-6,6.0,3,3,1,2
92,122,wbcfaf6a,Scene,1.0,2247.0,1,3,3,choice,2,2,5,6.0,3,3,1,2
93,123,wbcfaf6a,Red,1.0,3001.0,1,4,3,choice,3,2,1,-6.0,3,3,1,2
94,124,wbcfaf6a,Green,1.0,2423.0,1,5,3,choice,2,2,2,-1.0,3,3,1,1
95,125,wbcfaf6a,Animal,0.0,1541.0,0,6,3,choice,3,2,1,-5.0,3,3,2,2
96,126,wbcfaf6a,Yellow,1.0,2519.0,1,1,4,choice,3,2,2,7.0,4,4,2,2
97,127,wbcfaf6a,Animal,0.0,6053.0,0,2,4,choice,1,2,5,3.0,4,4,1,2
98,128,wbcfaf6a,Object,0.0,1942.0,1,3,4,choice,3,2,-1,-7.0,4,4,2,2
99,129,wbcfaf6a,Food,1.0,2208.0,0,4,4,choice,2,2,-6,3.0,4,4,1,1
100,130,wbcfaf6a,Green,0.0,5605.0,1,5,4,choice,2,2,-2,-4.0,4,4,1,2
101,131,wbcfaf6a,Blue,0.0,4257.0,1,6,4,choice,1,1,-2,-4.0,4,4,1,1
102,132,wbcfaf6a,Object,,,0,1,5,choice,3,2,-4,4.0,4,4,1,1
103,133,wbcfaf6a,Scene,1.0,2113.0,1,2,5,choice,1,1,8,6.0,4,4,1,1
104,134,wbcfaf6a,Blue,1.0,2248.0,0,3,5,choice,3,3,-2,4.0,4,4,2,2
105,135,wbcfaf6a,Food,0.0,4092.0,1,4,5,choice,2,3,-1,5.0,4,4,2,3
106,136,wbcfaf6a,Yellow,1.0,2673.0,1,5,5,choice,1,2,9,6.0,4,4,1,2
107,137,wbcfaf6a,Red,1.0,3644.0,0,6,5,choice,2,2,-4,5.0,4,4,1,2
108,138,w27e5a42,Blue,,,0,1,1,choice,2,1,2,5.0,4,4,1,1
109,139,w27e5a42,Red,0.0,2880.0,1,2,1,choice,3,3,-2,-2.0,4,4,3,3
110,140,w27e5a42,Scene,0.0,2681.0,0,3,1,choice,2,1,4,4.0,4,4,2,3
111,141,w27e5a42,Animal,0.0,3293.0,1,4,1,choice,1,2,-3,-3.0,4,4,1,1
112,142,w27e5a42,Food,1.0,3717.0,1,5,1,choice,3,1,3,-1.0,4,4,1,2
113,143,w27e5a42,Green,1.0,3893.0,1,6,1,choice,1,2,4,-3.0,4,4,0,1
114,144,w27e5a42,Red,0.0,4401.0,0,1,2,choice,1,1,5,5.0,5,5,1,1
115,145,w27e5a42,Blue,0.0,2207.0,1,2,2,choice,3,2,-2,-2.0,5,5,3,3
116,146,w27e5a42,Food,1.0,3306.0,1,3,2,choice,3,3,4,7.0,5,5,2,2
117,147,w27e5a42,Object,0.0,2373.0,1,4,2,choice,1,1,-3,-3.0,5,5,1,1
118,148,w27e5a42,Scene,0.0,4088.0,1,5,2,choice,2,2,-5,-5.0,5,5,2,2
119,149,w27e5a42,Green,1.0,4695.0,0,6,2,choice,2,2,-7,-4.0,5,5,1,1
120,150,w27e5a42,Animal,1.0,3745.0,0,1,3,choice,3,3,-2,-2.0,5,5,3,3
121,151,w27e5a42,Red,1.0,2924.0,0,2,3,choice,2,2,-4,8.0,5,5,2,2
122,152,w27e5a42,Food,0.0,1861.0,0,3,3,choice,1,0,4,-4.0,5,5,0,0
123,153,w27e5a42,Yellow,1.0,1519.0,1,4,3,choice,3,1,2,-15.0,5,5,2,2
124,154,w27e5a42,Scene,1.0,1960.0,0,5,3,choice,2,1,-7,1.0,5,5,2,2
125,155,w27e5a42,Blue,0.0,4363.0,1,6,3,choice,1,1,-3,2.0,5,5,1,1
126,156,w27e5a42,Scene,0.0,3378.0,0,1,4,choice,2,1,3,-4.0,4,4,1,1
127,157,w27e5a42,Animal,0.0,6360.0,1,2,4,choice,1,1,-9,2.0,4,4,1,1
128,158,w27e5a42,Red,0.0,1726.0,1,3,4,choice,1,2,-8,-5.0,4,4,0,0
129,159,w27e5a42,Green,1.0,2374.0,1,4,4,choice,3,2,3,7.0,4,4,2,2
130,160,w27e5a42,Object,1.0,2763.0,1,5,4,choice,3,3,5,9.0,4,4,2,2
131,161,w27e5a42,Yellow,1.0,770.0,1,6,4,choice,2,2,4,5.0,4,4,2,2
132,162,w27e5a42,Green,1.0,4575.0,1,1,5,choice,1,1,7,5.0,2,2,1,1
133,163,w27e5a42,Animal,0.0,3452.0,1,2,5,choice,2,1,-3,-3.0,2,2,0,0
134,164,w27e5a42,Food,1.0,3705.0,0,3,5,choice,1,0,-3,-4.0,2,2,0,0
135,165,w27e5a42,Blue,0.0,1473.0,1,4,5,choice,2,1,-8,0.0,2,2,0,0
136,166,w27e5a42,Object,1.0,1342.0,1,5,5,choice,3,2,4,12.0,2,2,2,2
137,167,w27e5a42,Yellow,0.0,738.0,1,6,5,choice,3,1,-1,0.0,2,2,1,1
138,168,w60e592a,Scene,1.0,3027.0,0,1,1,choice,2,4,-4,0.0,2,2,0,0
139,169,w60e592a,Blue,1.0,1151.0,1,2,1,choice,2,4,3,5.0,2,2,1,3
140,170,w60e592a,Yellow,1.0,1029.0,1,3,1,choice,3,4,1,9.0,2,2,0,0
141,171,w60e592a,Food,0.0,4478.0,1,4,1,choice,3,4,-2,3.0,2,2,2,2
142,172,w60e592a,Object,1.0,2202.0,1,5,1,choice,1,4,7,9.0,2,2,0,2
143,173,w60e592a,Red,0.0,2055.0,1,6,1,choice,1,4,-3,-2.0,2,2,1,3
144,174,w60e592a,Yellow,1.0,2405.0,0,1,2,choice,3,4,-2,1.0,5,5,2,2
145,175,w60e592a,Animal,1.0,3714.0,1,2,2,choice,2,4,3,2.0,5,5,1,1
146,176,w60e592a,Object,0.0,2649.0,0,3,2,choice,3,4,4,-1.0,5,5,3,3
147,177,w60e592a,Food,0.0,1665.0,1,4,2,choice,1,4,-3,-3.0,5,5,1,2
148,178,w60e592a,Green,0.0,3997.0,0,5,2,choice,2,4,1,0.0,5,5,2,2
149,179,w60e592a,Blue,1.0,3137.0,1,6,2,choice,1,4,5,-3.0,5,5,1,2
150,180,w60e592a,Red,1.0,1231.0,0,1,3,choice,3,4,-2,3.0,3,3,0,0
151,181,w60e592a,Yellow,0.0,3649.0,1,2,3,choice,2,4,-2,-3.0,3,3,2,3
152,182,w60e592a,Animal,1.0,979.0,1,3,3,choice,2,4,3,1.0,3,3,1,2
153,183,w60e592a,Object,1.0,2604.0,0,4,3,choice,1,4,-3,3.0,3,3,0,0
154,184,w60e592a,Scene,0.0,955.0,0,5,3,choice,3,4,2,-11.0,3,3,2,3
155,185,w60e592a,Green,0.0,2456.0,0,6,3,choice,1,4,6,-7.0,3,3,1,2
156,186,w60e592a,Green,1.0,1675.0,1,1,4,choice,3,4,2,6.0,3,3,2,2
157,187,w60e592a,Animal,0.0,1549.0,0,2,4,choice,1,4,4,5.0,3,3,1,2
158,188,w60e592a,Scene,1.0,1269.0,1,3,4,choice,2,4,2,2.0,3,3,1,2
159,189,w60e592a,Blue,0.0,1818.0,1,4,4,choice,1,4,-6,-7.0,3,3,1,1
160,190,w60e592a,Red,0.0,1180.0,0,5,4,choice,2,4,6,2.0,3,3,0,2
161,191,w60e592a,Food,0.0,2983.0,1,6,4,choice,3,4,-4,-6.0,3,3,1,1
162,192,w60e592a,Scene,0.0,2183.0,1,1,5,choice,1,4,-3,-3.0,4,4,1,2
163,193,w60e592a,Blue,1.0,1828.0,0,2,5,choice,3,4,-1,6.0,4,4,1,1
164,194,w60e592a,Green,1.0,2136.0,1,3,5,choice,1,4,5,-3.0,4,4,1,3
165,195,w60e592a,Object,1.0,1605.0,1,4,5,choice,3,4,4,-1.0,4,4,2,2
166,196,w60e592a,Red,1.0,2166.0,1,5,5,choice,2,4,2,1.0,4,4,2,2
167,197,w60e592a,Animal,0.0,1965.0,0,6,5,choice,2,4,5,8.0,4,4,1,2
168,198,wef591ef,Object,,,0,1,1,choice,1,1,-8,-8.0,1,1,0,2
169,199,wef591ef,Blue,0.0,2124.0,1,2,1,choice,1,1,-7,-7.0,1,1,1,2
170,200,wef591ef,Scene,1.0,4066.0,1,3,1,choice,2,2,2,2.0,1,1,0,1
171,201,wef591ef,Animal,1.0,3943.0,1,4,1,choice,3,3,3,3.0,1,1,1,2
172,202,wef591ef,Green,0.0,2691.0,0,5,1,choice,2,2,3,3.0,1,1,0,0
173,203,wef591ef,Yellow,1.0,3041.0,1,6,1,choice,3,2,1,1.0,1,1,0,0
174,204,wef591ef,Animal,1.0,2933.0,1,1,2,choice,1,1,8,8.0,6,6,1,1
175,205,wef591ef,Scene,1.0,2790.0,1,2,2,choice,2,2,2,2.0,6,6,2,2
176,206,wef591ef,Green,1.0,3174.0,1,3,2,choice,1,1,7,7.0,6,6,1,1
177,207,wef591ef,Yellow,1.0,948.0,1,4,2,choice,2,2,3,3.0,6,6,2,2
178,208,wef591ef,Red,0.0,2049.0,1,5,2,choice,3,3,-1,-1.0,6,6,3,3
179,209,wef591ef,Food,1.0,2480.0,0,6,2,choice,3,3,-1,-1.0,6,6,3,3
180,210,wef591ef,Yellow,0.0,3614.0,1,1,3,choice,2,2,-6,-6.0,6,6,2,2
181,211,wef591ef,Animal,0.0,3304.0,1,2,3,choice,2,2,-2,-2.0,6,6,2,2
182,212,wef591ef,Food,1.0,5027.0,1,3,3,choice,3,3,1,1.0,6,6,3,3
183,213,wef591ef,Green,0.0,4169.0,1,4,3,choice,3,3,-3,-3.0,6,6,3,3
184,214,wef591ef,Blue,1.0,2017.0,1,5,3,choice,1,1,3,3.0,6,6,1,1
185,215,wef591ef,Object,0.0,3306.0,1,6,3,choice,1,1,-5,-5.0,6,6,1,1
186,216,wef591ef,Object,,,0,1,4,choice,3,3,1,1.0,6,6,3,3
187,217,wef591ef,Blue,0.0,3475.0,1,2,4,choice,3,3,-1,-1.0,6,6,3,3
188,218,wef591ef,Food,0.0,3203.0,1,3,4,choice,1,1,-5,-5.0,6,6,1,1
189,219,wef591ef,Yellow,1.0,1475.0,1,4,4,choice,1,1,4,4.0,6,6,1,1
190,220,wef591ef,Scene,1.0,2465.0,1,5,4,choice,2,2,1,0.0,6,6,2,2
191,221,wef591ef,Red,0.0,2275.0,1,6,4,choice,2,2,-6,-7.0,6,6,2,2
192,222,wef591ef,Animal,1.0,1915.0,1,1,5,choice,2,1,3,3.0,6,6,2,2
193,223,wef591ef,Object,1.0,4352.0,0,2,5,choice,3,3,-6,-6.0,6,6,3,3
194,224,wef591ef,Green,0.0,1728.0,1,3,5,choice,1,1,-7,-7.0,6,6,1,1
195,225,wef591ef,Food,1.0,3081.0,1,4,5,choice,1,1,4,4.0,6,6,1,1
196,226,wef591ef,Red,1.0,3499.0,1,5,5,choice,3,3,2,2.0,6,6,3,3
197,227,wef591ef,Blue,1.0,3089.0,1,6,5,choice,2,2,6,6.0,6,6,2,2
198,228,wb51887d,Green,0.0,2854.0,1,1,1,choice,1,1,-2,5.0,4,4,1,1
199,229,wb51887d,Scene,1.0,3343.0,1,2,1,choice,2,2,4,-3.0,4,4,1,1
200,230,wb51887d,Red,1.0,5695.0,1,3,1,choice,2,1,6,-5.0,4,4,1,1
201,231,wb51887d,Blue,1.0,1425.0,1,4,1,choice,3,2,3,5.0,4,4,2,2
202,232,wb51887d,Food,0.0,1431.0,0,5,1,choice,1,1,4,0.0,4,4,1,1
203,233,wb51887d,Animal,0.0,2029.0,1,6,1,choice,3,2,-1,8.0,4,4,2,2
204,234,wb51887d,Green,1.0,1257.0,0,1,3,choice,3,1,-1,-2.0,3,3,1,1
205,235,wb51887d,Scene,1.0,2755.0,1,2,3,choice,2,1,8,-14.0,3,3,1,2
206,236,wb51887d,Red,0.0,2954.0,0,3,3,choice,2,2,5,-9.0,3,3,2,2
207,237,wb51887d,Yellow,0.0,3920.0,0,4,3,choice,1,0,5,0.0,3,3,0,1
208,238,wb51887d,Object,1.0,1144.0,0,5,3,choice,1,1,-3,5.0,3,3,1,1
209,239,wb51887d,Food,,,0,6,3,choice,3,1,4,-2.0,3,3,1,1
210,240,wb51887d,Blue,1.0,2860.0,1,1,4,choice,3,2,2,8.0,4,4,2,2
211,241,wb51887d,Yellow,0.0,3285.0,1,2,4,choice,1,1,-6,0.0,4,4,1,1
212,242,wb51887d,Scene,1.0,1479.0,1,3,4,choice,1,1,3,0.0,4,4,1,1
213,243,wb51887d,Food,1.0,1682.0,0,4,4,choice,3,3,-3,8.0,4,4,3,3
214,244,wb51887d,Green,1.0,1586.0,0,5,4,choice,2,1,-1,0.0,4,4,1,1
215,245,wb51887d,Object,0.0,683.0,1,6,4,choice,2,0,-5,0.0,4,4,0,0
216,246,wb51887d,Green,0.0,4565.0,1,1,5,choice,2,1,-4,2.0,6,6,2,2
217,247,wb51887d,Yellow,1.0,3230.0,1,2,5,choice,3,3,1,2.0,6,6,3,3
218,248,wb51887d,Blue,0.0,2149.0,1,3,5,choice,1,1,-2,-2.0,6,6,1,1
219,249,wb51887d,Scene,1.0,3102.0,0,4,5,choice,2,1,-7,1.0,6,6,2,2
220,250,wb51887d,Animal,0.0,3689.0,1,5,5,choice,3,3,-1,1.0,6,6,3,3
221,251,wb51887d,Object,1.0,3434.0,1,6,5,choice,1,1,3,0.0,6,6,1,1
222,282,w58111ca,Blue,,,0,1,1,choice,1,2,3,5.0,5,5,1,1
223,283,w58111ca,Object,1.0,2046.0,0,2,1,choice,1,0,-4,8.0,5,5,1,1
224,284,w58111ca,Food,1.0,1721.0,1,3,1,choice,3,3,2,4.0,5,5,3,4
225,285,w58111ca,Red,1.0,2519.0,0,4,1,choice,2,2,-5,-14.0,5,5,1,1
226,286,w58111ca,Yellow,1.0,1934.0,0,5,1,choice,3,2,-3,9.0,5,5,3,3
227,287,w58111ca,Scene,0.0,3095.0,1,6,1,choice,2,1,-3,-12.0,5,5,1,1
228,288,w58111ca,Object,1.0,2678.0,0,1,2,choice,2,1,-5,-5.0,3,3,1,1
229,289,w58111ca,Green,1.0,1948.0,1,2,2,choice,3,1,1,11.0,3,3,1,1
230,290,w58111ca,Food,1.0,2994.0,0,3,2,choice,3,1,-3,2.0,3,3,2,3
231,291,w58111ca,Yellow,0.0,2182.0,1,4,2,choice,2,1,-1,-14.0,3,3,1,2
232,292,w58111ca,Animal,0.0,2173.0,0,5,2,choice,1,0,2,3.0,3,3,0,0
233,293,w58111ca,Blue,0.0,1230.0,1,6,2,choice,1,1,-6,3.0,3,3,1,2
234,294,w58111ca,Yellow,1.0,3699.0,1,1,3,choice,1,1,7,6.0,5,5,1,1
235,295,w58111ca,Blue,1.0,730.0,0,2,3,choice,3,3,-5,-3.0,5,5,3,3
236,296,w58111ca,Red,1.0,1833.0,0,3,3,choice,2,1,-1,-1.0,5,5,1,1
237,297,w58111ca,Scene,0.0,2249.0,1,4,3,choice,1,1,-6,-5.0,5,5,1,1
238,298,w58111ca,Object,0.0,3410.0,0,5,3,choice,2,2,5,5.0,5,5,2,2
239,299,w58111ca,Animal,1.0,1805.0,1,6,3,choice,3,2,2,2.0,5,5,2,3
240,300,w58111ca,Animal,1.0,2032.0,0,1,4,choice,2,1,-2,-3.0,3,3,1,3
241,301,w58111ca,Scene,0.0,269.0,1,2,4,choice,1,0,-9,-3.0,3,3,1,1
242,302,w58111ca,Green,0.0,5116.0,1,3,4,choice,1,1,-8,-5.0,3,3,1,2
243,303,w58111ca,Red,0.0,1374.0,0,4,4,choice,2,1,1,-1.0,3,3,0,1
244,304,w58111ca,Blue,1.0,952.0,1,5,4,choice,3,0,1,-9.0,3,3,2,2
245,305,w58111ca,Object,0.0,107.0,0,6,4,choice,3,1,5,-9.0,3,3,1,1
246,306,w58111ca,Scene,1.0,1932.0,1,1,5,choice,3,2,2,8.0,4,4,2,2
247,307,w58111ca,Red,1.0,2480.0,1,2,5,choice,2,2,5,4.0,4,4,2,2
248,308,w58111ca,Yellow,0.0,2046.0,1,3,5,choice,1,0,-9,-3.0,4,4,0,1
249,309,w58111ca,Green,1.0,1537.0,1,4,5,choice,3,2,1,8.0,4,4,2,3
250,310,w58111ca,Food,0.0,814.0,0,5,5,choice,2,1,1,1.0,4,4,2,3
251,311,w58111ca,Animal,1.0,974.0,0,6,5,choice,1,0,-6,0.0,4,4,0,0
252,312,wc9128ed,Scene,,,0,1,1,choice,1,1,5,5.0,3,3,1,2
253,313,wc9128ed,Object,1.0,3409.0,0,2,1,choice,3,2,-3,2.0,3,3,1,1
254,314,wc9128ed,Red,0.0,3704.0,1,3,1,choice,1,2,-4,3.0,3,3,1,3
255,315,wc9128ed,Green,1.0,2029.0,1,4,1,choice,2,2,6,4.0,3,3,1,1
256,316,wc9128ed,Animal,0.0,2819.0,0,5,1,choice,2,1,4,-2.0,3,3,1,1
257,317,wc9128ed,Yellow,1.0,3177.0,1,6,1,choice,3,2,4,-2.0,3,3,1,1
258,318,wc9128ed,Animal,0.0,2743.0,0,1,2,choice,3,2,2,3.0,3,3,2,3
259,319,wc9128ed,Blue,1.0,4356.0,1,2,2,choice,1,2,7,7.0,3,3,1,1
260,320,wc9128ed,Scene,1.0,4011.0,1,3,2,choice,2,2,3,12.0,3,3,1,1
261,321,wc9128ed,Red,1.0,2323.0,0,4,2,choice,2,1,-3,8.0,3,3,0,0
262,322,wc9128ed,Food,0.0,3798.0,1,5,2,choice,1,1,-2,-5.0,3,3,0,0
263,323,wc9128ed,Green,0.0,1593.0,1,6,2,choice,3,2,-1,-5.0,3,3,2,2
264,324,wc9128ed,Green,0.0,4678.0,1,1,3,choice,3,3,-1,-7.0,5,5,3,4
265,325,wc9128ed,Yellow,1.0,5016.0,1,2,3,choice,1,1,8,8.0,5,5,1,1
266,326,wc9128ed,Food,1.0,3464.0,0,3,3,choice,3,2,-3,-6.0,5,5,2,2
267,327,wc9128ed,Object,1.0,5670.0,1,4,3,choice,1,1,9,5.0,5,5,1,1
268,328,wc9128ed,Blue,0.0,1759.0,1,5,3,choice,2,1,-2,-3.0,5,5,1,1
269,329,wc9128ed,Scene,0.0,6958.0,1,6,3,choice,2,2,-1,-1.0,5,5,2,2
270,330,wc9128ed,Food,,,0,1,4,choice,1,1,-9,-2.0,5,5,1,1
271,331,wc9128ed,Blue,1.0,1725.0,1,2,4,choice,2,2,3,1.0,5,5,1,1
272,332,wc9128ed,Scene,1.0,2862.0,1,3,4,choice,3,3,1,3.0,5,5,3,3
273,333,wc9128ed,Red,1.0,3070.0,1,4,4,choice,3,3,3,10.0,5,5,3,3
274,334,wc9128ed,Yellow,0.0,3394.0,1,5,4,choice,1,1,-8,-4.0,5,5,1,1
275,335,wc9128ed,Object,1.0,3366.0,1,6,4,choice,2,1,6,6.0,5,5,1,1
276,336,wc9128ed,Yellow,1.0,3487.0,1,1,5,choice,2,2,2,4.0,3,3,1,1
277,337,wc9128ed,Food,0.0,5061.0,0,2,5,choice,2,2,5,-4.0,3,3,1,1
278,338,wc9128ed,Animal,1.0,1668.0,1,3,5,choice,3,3,2,2.0,3,3,2,3
279,339,wc9128ed,Object,0.0,3777.0,1,4,5,choice,1,1,-6,-1.0,3,3,0,0
280,340,wc9128ed,Blue,1.0,5121.0,0,5,5,choice,3,2,-4,-12.0,3,3,1,1
281,341,wc9128ed,Red,1.0,1881.0,1,6,5,choice,1,1,3,5.0,3,3,1,1
282,342,wf8b98ff,Blue,1.0,3097.0,0,1,1,choice,1,2,-3,-3.0,3,3,0,1
283,343,wf8b98ff,Red,0.0,3515.0,1,2,1,choice,2,1,-4,2.0,3,3,1,1
284,344,wf8b98ff,Animal,1.0,1300.0,1,3,1,choice,1,1,6,6.0,3,3,1,1
285,345,wf8b98ff,Object,0.0,3314.0,1,4,1,choice,2,0,-8,0.0,3,3,1,1
286,346,wf8b98ff,Scene,1.0,3424.0,0,5,1,choice,3,2,-1,5.0,3,3,1,1
287,347,wf8b98ff,Yellow,1.0,1249.0,1,6,1,choice,3,1,4,12.0,3,3,2,2
288,348,wf8b98ff,Green,0.0,2588.0,1,1,2,choice,2,1,-5,-5.0,5,5,1,1
289,349,wf8b98ff,Blue,1.0,2053.0,0,2,2,choice,3,1,-3,2.0,5,5,3,3
290,350,wf8b98ff,Object,0.0,4243.0,1,3,2,choice,2,1,-2,1.0,5,5,1,1
291,351,wf8b98ff,Red,1.0,2682.0,1,4,2,choice,1,0,2,2.0,5,5,1,1
292,352,wf8b98ff,Scene,1.0,2369.0,1,5,2,choice,3,1,1,1.0,5,5,3,3
293,353,wf8b98ff,Food,0.0,2631.0,1,6,2,choice,1,1,-5,-3.0,5,5,1,1
294,354,wf8b98ff,Red,0.0,1386.0,0,1,3,choice,3,0,2,2.0,3,3,1,1
295,355,wf8b98ff,Animal,0.0,3313.0,0,2,3,choice,2,1,4,4.0,3,3,1,1
296,356,wf8b98ff,Blue,1.0,4035.0,1,3,3,choice,2,1,5,5.0,3,3,1,1
297,357,wf8b98ff,Food,0.0,5233.0,0,4,3,choice,3,0,2,18.0,3,3,1,1
298,358,wf8b98ff,Object,1.0,3969.0,0,5,3,choice,1,0,-7,-7.0,3,3,1,1
299,359,wf8b98ff,Yellow,1.0,4062.0,0,6,3,choice,1,0,-8,8.0,3,3,1,1
300,360,wf8b98ff,Yellow,0.0,3474.0,0,1,4,choice,2,1,1,-2.0,4,4,2,2
301,361,wf8b98ff,Object,1.0,5126.0,1,2,4,choice,2,0,4,1.0,4,4,2,2
302,362,wf8b98ff,Red,1.0,4708.0,1,3,4,choice,1,0,2,2.0,4,4,0,0
303,363,wf8b98ff,Animal,0.0,3030.0,1,4,4,choice,1,1,-6,-6.0,4,4,1,1
304,364,wf8b98ff,Green,0.0,3572.0,1,5,4,choice,3,1,-4,-4.0,4,4,2,2
305,365,wf8b98ff,Food,0.0,1756.0,0,6,4,choice,3,1,1,1.0,4,4,1,1
306,366,wf8b98ff,Scene,1.0,2881.0,1,1,5,choice,2,1,5,5.0,2,2,1,1
307,367,wf8b98ff,Yellow,1.0,5180.0,1,2,5,choice,2,1,4,4.0,2,2,0,2
308,368,wf8b98ff,Green,0.0,4972.0,0,3,5,choice,3,1,1,3.0,2,2,2,2
309,369,wf8b98ff,Animal,0.0,5273.0,0,4,5,choice,3,1,1,1.0,2,2,0,0
310,370,wf8b98ff,Food,0.0,4643.0,1,5,5,choice,1,1,-9,-7.0,2,2,1,2
311,371,wf8b98ff,Blue,1.0,2768.0,0,6,5,choice,1,1,-8,-8.0,2,2,0,0
312,372,w4e997cb,Yellow,1.0,3551.0,0,1,1,choice,3,2,-1,4.0,3,3,2,2
313,373,w4e997cb,Blue,1.0,1802.0,1,2,1,choice,1,2,9,2.0,3,3,0,2
314,374,w4e997cb,Food,0.0,1607.0,0,3,1,choice,2,2,3,14.0,3,3,1,2
315,375,w4e997cb,Scene,1.0,1009.0,1,4,1,choice,1,2,4,2.0,3,3,1,2
316,376,w4e997cb,Animal,0.0,1431.0,1,5,1,choice,3,2,-1,-6.0,3,3,1,1
317,377,w4e997cb,Green,0.0,1725.0,1,6,1,choice,2,1,-2,4.0,3,3,1,1
318,378,w4e997cb,Food,1.0,4467.0,1,1,2,choice,3,3,3,-7.0,5,5,3,3
319,379,w4e997cb,Object,1.0,2335.0,0,2,2,choice,1,1,-7,-4.0,5,5,0,0
320,380,w4e997cb,Green,0.0,1731.0,0,3,2,choice,2,2,3,-8.0,5,5,2,2
321,381,w4e997cb,Yellow,0.0,2663.0,1,4,2,choice,3,3,-6,-14.0,5,5,2,3
322,382,w4e997cb,Scene,0.0,1993.0,0,5,2,choice,2,2,6,-6.0,5,5,2,2
323,383,w4e997cb,Red,1.0,1861.0,1,6,2,choice,1,1,5,5.0,5,5,1,1
324,384,w4e997cb,Object,1.0,3928.0,0,1,3,choice,3,2,-1,9.0,4,4,2,2
325,385,w4e997cb,Red,1.0,4482.0,1,2,3,choice,2,2,7,9.0,4,4,1,2
326,386,w4e997cb,Green,0.0,3338.0,1,3,3,choice,1,1,-3,0.0,4,4,0,0
327,387,w4e997cb,Scene,1.0,3857.0,1,4,3,choice,2,1,4,0.0,4,4,1,1
328,388,w4e997cb,Food,0.0,4103.0,0,5,3,choice,1,2,5,5.0,4,4,1,2
329,389,w4e997cb,Blue,1.0,3598.0,1,6,3,choice,3,2,4,5.0,4,4,3,3
330,390,w4e997cb,Animal,1.0,2116.0,1,1,4,choice,2,1,8,4.0,5,5,2,2
331,391,w4e997cb,Red,0.0,3858.0,1,2,4,choice,3,2,-6,7.0,5,5,3,3
332,392,w4e997cb,Yellow,0.0,4328.0,0,3,4,choice,1,0,4,0.0,5,5,0,0
333,393,w4e997cb,Object,1.0,2918.0,1,4,4,choice,3,1,2,14.0,5,5,2,2
334,394,w4e997cb,Scene,0.0,2513.0,1,5,4,choice,1,1,-8,-7.0,5,5,1,1
335,395,w4e997cb,Green,0.0,2191.0,0,6,4,choice,2,2,4,4.0,5,5,2,2
336,396,w4e997cb,Red,1.0,4246.0,1,1,5,choice,2,2,1,9.0,3,3,0,0
337,397,w4e997cb,Yellow,0.0,2486.0,1,2,5,choice,1,1,-5,0.0,3,3,1,1
338,398,w4e997cb,Object,1.0,3780.0,1,3,5,choice,1,1,4,-1.0,3,3,0,0
339,399,w4e997cb,Animal,1.0,4810.0,0,4,5,choice,3,2,-1,14.0,3,3,2,3
340,400,w4e997cb,Blue,1.0,3689.0,1,5,5,choice,3,2,2,4.0,3,3,2,2
341,401,w4e997cb,Food,1.0,1044.0,0,6,5,choice,2,1,-5,0.0,3,3,1,1
342,402,wecf7799,Green,1.0,2819.0,0,1,1,choice,2,4,-2,2.0,5,5,2,2
343,403,wecf7799,Food,0.0,6865.0,0,2,1,choice,3,4,2,0.0,5,5,2,2
344,404,wecf7799,Yellow,1.0,2677.0,1,3,1,choice,1,4,3,-3.0,5,5,1,1
345,405,wecf7799,Object,1.0,3270.0,1,4,1,choice,2,4,3,5.0,5,5,2,2
346,406,wecf7799,Blue,0.0,1112.0,1,5,1,choice,3,4,-4,2.0,5,5,2,2
347,407,wecf7799,Animal,0.0,2109.0,1,6,1,choice,1,4,-8,-4.0,5,5,1,1
348,408,wecf7799,Animal,0.0,3561.0,0,1,2,choice,2,4,1,-2.0,5,5,1,1
349,409,wecf7799,Food,1.0,3000.0,1,2,2,choice,1,4,5,6.0,5,5,1,1
350,410,wecf7799,Red,1.0,2158.0,1,3,2,choice,3,2,4,6.0,5,5,3,3
351,411,wecf7799,Blue,1.0,2527.0,0,4,2,choice,1,4,-6,9.0,5,5,1,1
352,412,wecf7799,Scene,1.0,2169.0,0,5,2,choice,3,3,-3,12.0,5,5,3,3
353,413,wecf7799,Green,0.0,1091.0,0,6,2,choice,2,1,5,1.0,5,5,1,1
354,414,wecf7799,Food,1.0,1767.0,0,1,3,choice,2,3,-5,-5.0,2,2,1,1
355,415,wecf7799,Blue,0.0,2091.0,0,2,3,choice,2,2,1,-15.0,2,2,0,0
356,416,wecf7799,Object,0.0,4550.0,0,3,3,choice,1,1,5,4.0,2,2,0,0
357,417,wecf7799,Red,1.0,979.0,1,4,3,choice,3,1,1,3.0,2,2,2,2
358,418,wecf7799,Yellow,0.0,4939.0,1,5,3,choice,1,2,-3,-3.0,2,2,0,0
359,419,wecf7799,Animal,1.0,1131.0,0,6,3,choice,3,3,-1,-14.0,2,2,1,1
360,420,wecf7799,Yellow,1.0,1563.0,0,1,4,choice,2,1,-1,-6.0,3,3,1,1
361,421,wecf7799,Green,1.0,1943.0,1,2,4,choice,3,2,2,2.0,3,3,1,1
362,422,wecf7799,Red,0.0,1162.0,1,3,4,choice,1,1,-2,-2.0,3,3,1,1
363,423,wecf7799,Scene,1.0,3480.0,0,4,4,choice,3,2,-1,-15.0,3,3,2,2
364,424,wecf7799,Object,1.0,2249.0,1,5,4,choice,1,2,3,2.0,3,3,0,0
365,425,wecf7799,Food,1.0,561.0,0,6,4,choice,2,2,-3,7.0,3,3,1,1
366,426,wecf7799,Yellow,1.0,2355.0,1,1,5,choice,3,2,5,-4.0,2,2,2,2
367,427,wecf7799,Scene,1.0,1820.0,1,2,5,choice,2,2,4,3.0,2,2,1,2
368,428,wecf7799,Blue,0.0,1332.0,0,3,5,choice,2,2,6,-2.0,2,2,0,0
369,429,wecf7799,Object,0.0,1614.0,1,4,5,choice,3,2,-4,-10.0,2,2,1,1
370,430,wecf7799,Red,1.0,6263.0,0,5,5,choice,1,2,-5,-4.0,2,2,0,2
371,431,wecf7799,Animal,1.0,4639.0,1,6,5,choice,1,2,6,-3.0,2,2,0,0
372,492,wbb70a68,Animal,1.0,6182.0,1,1,1,choice,3,3,5,19.0,4,4,3,3
373,493,wbb70a68,Scene,0.0,2838.0,1,2,1,choice,1,1,-7,-7.0,4,4,1,1
374,494,wbb70a68,Object,1.0,2820.0,1,3,1,choice,2,1,3,4.0,4,4,0,1
375,495,wbb70a68,Green,0.0,1703.0,0,4,1,choice,2,1,6,2.0,4,4,1,1
376,496,wbb70a68,Yellow,1.0,3031.0,1,5,1,choice,3,2,4,6.0,4,4,2,2
377,497,wbb70a68,Red,0.0,1377.0,1,6,1,choice,1,2,-9,8.0,4,4,1,2
378,498,wbb70a68,Green,0.0,6948.0,1,1,2,choice,2,2,-5,-4.0,5,5,2,3
379,499,wbb70a68,Food,,,0,2,2,choice,2,2,-1,-1.0,5,5,2,2
380,500,wbb70a68,Scene,1.0,2649.0,1,3,2,choice,3,3,1,2.0,5,5,3,3
381,501,wbb70a68,Blue,1.0,4170.0,1,4,2,choice,1,1,4,5.0,5,5,1,1
382,502,wbb70a68,Red,0.0,1590.0,1,5,2,choice,3,3,-1,-4.0,5,5,2,2
383,503,wbb70a68,Object,0.0,3961.0,1,6,2,choice,1,1,-2,-4.0,5,5,0,1
384,504,wbb70a68,Scene,1.0,4203.0,0,1,3,choice,3,2,-2,3.0,2,2,2,2
385,505,wbb70a68,Yellow,0.0,3965.0,1,2,3,choice,3,1,-5,-13.0,2,2,0,0
386,506,wbb70a68,Food,1.0,2510.0,0,3,3,choice,2,1,-6,-15.0,2,2,0,0
387,507,wbb70a68,Red,1.0,2493.0,1,4,3,choice,1,1,7,6.0,2,2,1,2
388,508,wbb70a68,Object,0.0,2249.0,0,5,3,choice,1,1,9,-9.0,2,2,0,1
389,509,wbb70a68,Blue,0.0,4227.0,1,6,3,choice,2,1,-1,-14.0,2,2,1,1
390,510,wbb70a68,Blue,1.0,4439.0,1,1,4,choice,2,2,1,4.0,4,4,2,2
391,511,wbb70a68,Scene,1.0,4495.0,0,2,4,choice,1,1,-5,3.0,4,4,1,1
392,512,wbb70a68,Yellow,1.0,4674.0,1,3,4,choice,1,1,3,2.0,4,4,0,0
393,513,wbb70a68,Green,1.0,1619.0,0,4,4,choice,3,2,-1,-2.0,4,4,2,2
394,514,wbb70a68,Animal,0.0,2202.0,0,5,4,choice,3,1,1,10.0,4,4,1,1
395,515,wbb70a68,Food,0.0,2060.0,0,6,4,choice,2,2,7,-9.0,4,4,2,2
396,516,wbb70a68,Red,1.0,2974.0,1,1,5,choice,3,1,3,14.0,2,2,1,1
397,517,wbb70a68,Blue,0.0,3925.0,1,2,5,choice,2,1,-2,1.0,2,2,0,1
398,518,wbb70a68,Animal,0.0,3307.0,1,3,5,choice,2,1,-4,6.0,2,2,0,1
399,519,wbb70a68,Object,0.0,2268.0,1,4,5,choice,3,1,-2,6.0,2,2,1,1
400,520,wbb70a68,Green,1.0,1479.0,0,5,5,choice,1,1,-3,2.0,2,2,1,1
401,521,wbb70a68,Food,0.0,2620.0,0,6,5,choice,1,1,4,5.0,2,2,1,2
402,522,w967bd55,Food,1.0,3299.0,1,1,1,choice,3,3,1,-10.0,4,4,2,2
403,523,w967bd55,Green,1.0,6416.0,1,2,1,choice,2,2,1,1.0,4,4,2,2
404,524,w967bd55,Animal,0.0,3214.0,0,3,1,choice,2,3,8,2.0,4,4,2,3
405,525,w967bd55,Yellow,0.0,1038.0,0,4,1,choice,1,2,4,-9.0,4,4,0,2
406,526,w967bd55,Scene,1.0,1545.0,0,5,1,choice,1,4,-6,-2.0,4,4,0,1
407,527,w967bd55,Blue,0.0,6023.0,1,6,1,choice,3,3,-2,-2.0,4,4,2,2
408,528,w967bd55,Red,,,0,1,2,choice,3,2,4,5.0,5,5,3,3
409,529,w967bd55,Food,1.0,5140.0,0,2,2,choice,2,2,-1,15.0,5,5,2,2
410,530,w967bd55,Animal,1.0,3361.0,1,3,2,choice,1,2,7,7.0,5,5,1,1
411,531,w967bd55,Blue,0.0,992.0,1,4,2,choice,1,1,-4,-9.0,5,5,0,0
412,532,w967bd55,Object,0.0,3596.0,1,5,2,choice,3,2,-1,-15.0,5,5,2,2
413,533,w967bd55,Green,1.0,4698.0,1,6,2,choice,2,2,5,11.0,5,5,2,2
414,534,w967bd55,Red,0.0,4577.0,1,1,3,choice,2,3,-4,5.0,5,5,2,3
415,535,w967bd55,Object,0.0,5283.0,0,2,3,choice,1,2,9,-1.0,5,5,0,0
416,536,w967bd55,Food,0.0,1538.0,1,3,3,choice,3,2,-1,-1.0,5,5,3,3
417,537,w967bd55,Blue,1.0,3727.0,1,4,3,choice,1,2,8,4.0,5,5,1,1
418,538,w967bd55,Yellow,1.0,2192.0,0,5,3,choice,3,2,-1,-17.0,5,5,2,2
419,539,w967bd55,Scene,0.0,1307.0,1,6,3,choice,2,2,-5,-6.0,5,5,2,2
420,540,w967bd55,Object,1.0,2519.0,0,1,4,choice,1,2,-8,-8.0,3,3,1,1
421,541,w967bd55,Blue,0.0,1655.0,0,2,4,choice,2,1,1,11.0,3,3,1,1
422,542,w967bd55,Green,0.0,1001.0,1,3,4,choice,1,1,-9,-3.0,3,3,0,1
423,543,w967bd55,Yellow,1.0,470.0,1,4,4,choice,3,3,5,-19.0,3,3,2,2
424,544,w967bd55,Animal,1.0,4826.0,1,5,4,choice,2,2,3,6.0,3,3,0,2
425,545,w967bd55,Scene,0.0,797.0,0,6,4,choice,3,2,2,-9.0,3,3,2,2
426,546,w967bd55,Red,0.0,1436.0,0,1,5,choice,3,1,1,-10.0,5,5,2,2
427,547,w967bd55,Object,0.0,3984.0,0,2,5,choice,2,1,2,-12.0,5,5,1,1
428,548,w967bd55,Scene,0.0,5024.0,0,3,5,choice,1,1,2,2.0,5,5,1,1
429,549,w967bd55,Green,1.0,2544.0,1,4,5,choice,2,2,6,-3.0,5,5,2,2
430,550,w967bd55,Animal,0.0,1185.0,1,5,5,choice,3,2,-1,-7.0,5,5,3,3
431,551,w967bd55,Yellow,1.0,3738.0,0,6,5,choice,1,1,-4,-4.0,5,5,1,1
432,552,w8bc33f5,Yellow,1.0,6205.0,0,1,1,choice,1,1,-2,3.0,3,3,1,2
433,553,w8bc33f5,Red,1.0,3100.0,1,2,1,choice,2,2,4,5.0,3,3,1,2
434,554,w8bc33f5,Blue,0.0,1759.0,0,3,1,choice,3,2,1,-1.0,3,3,1,1
435,555,w8bc33f5,Object,1.0,2091.0,0,4,1,choice,3,1,-1,8.0,3,3,1,1
436,556,w8bc33f5,Animal,0.0,3476.0,0,5,1,choice,1,1,6,3.0,3,3,1,2
437,557,w8bc33f5,Scene,1.0,440.0,0,6,1,choice,2,2,-2,-4.0,3,3,1,2
438,558,w8bc33f5,Animal,0.0,5924.0,1,1,2,choice,3,3,-4,-2.0,5,5,3,3
439,559,w8bc33f5,Food,1.0,4445.0,1,2,2,choice,2,1,6,-5.0,5,5,2,2
440,560,w8bc33f5,Scene,0.0,2903.0,0,3,2,choice,1,0,4,-7.0,5,5,0,0
441,561,w8bc33f5,Green,0.0,3165.0,1,4,2,choice,1,2,-5,-7.0,5,5,1,1
442,562,w8bc33f5,Yellow,0.0,1760.0,0,5,2,choice,3,2,3,-7.0,5,5,2,2
443,563,w8bc33f5,Blue,1.0,3625.0,1,6,2,choice,2,2,8,0.0,5,5,2,2
444,564,w8bc33f5,Food,0.0,3665.0,1,1,3,choice,2,1,-4,3.0,4,4,0,0
445,565,w8bc33f5,Green,1.0,1520.0,0,2,3,choice,2,2,-8,7.0,4,4,1,1
446,566,w8bc33f5,Blue,0.0,384.0,1,3,3,choice,3,3,-4,0.0,4,4,2,3
447,567,w8bc33f5,Scene,0.0,1843.0,0,4,3,choice,3,3,3,12.0,4,4,3,3
448,568,w8bc33f5,Object,0.0,725.0,1,5,3,choice,1,1,-7,0.0,4,4,1,1
449,569,w8bc33f5,Red,1.0,1896.0,1,6,3,choice,1,1,4,8.0,4,4,1,1
450,570,w8bc33f5,Object,1.0,2781.0,1,1,4,choice,3,3,5,4.0,5,5,3,3
451,571,w8bc33f5,Green,0.0,2472.0,0,2,4,choice,1,1,6,4.0,5,5,1,1
452,572,w8bc33f5,Food,0.0,1618.0,1,3,4,choice,1,1,-4,5.0,5,5,1,1
453,573,w8bc33f5,Red,0.0,630.0,1,4,4,choice,3,2,-3,19.0,5,5,2,2
454,574,w8bc33f5,Animal,0.0,1372.0,1,5,4,choice,2,1,-6,-2.0,5,5,1,1
455,575,w8bc33f5,Yellow,0.0,801.0,1,6,4,choice,2,2,-8,-16.0,5,5,2,2
456,576,w8bc33f5,Object,0.0,1939.0,1,1,5,choice,1,1,-7,4.0,6,6,1,1
457,577,w8bc33f5,Green,1.0,1675.0,0,2,5,choice,3,3,-5,11.0,6,6,3,3
458,578,w8bc33f5,Yellow,0.0,459.0,1,3,5,choice,2,2,-6,-7.0,6,6,2,2
459,579,w8bc33f5,Red,0.0,804.0,0,4,5,choice,1,1,5,8.0,6,6,1,1
460,580,w8bc33f5,Scene,0.0,362.0,1,5,5,choice,2,2,-3,-4.0,6,6,2,2
461,581,w8bc33f5,Food,0.0,1371.0,0,6,5,choice,3,3,4,12.0,6,6,3,3
462,582,w2b37aae,Red,0.0,2546.0,0,1,1,choice,1,4,9,-2.0,3,3,0,0
463,583,w2b37aae,Scene,1.0,2540.0,1,2,1,choice,1,5,8,8.0,3,3,0,0
464,584,w2b37aae,Yellow,1.0,1757.0,1,3,1,choice,2,4,2,-3.0,3,3,1,2
465,585,w2b37aae,Blue,0.0,4112.0,1,4,1,choice,3,4,-5,12.0,3,3,2,2
466,586,w2b37aae,Food,1.0,4633.0,0,5,1,choice,3,0,-1,0.0,3,3,2,2
467,587,w2b37aae,Object,0.0,4079.0,1,6,1,choice,2,4,-1,-1.0,3,3,1,1
468,588,w2b37aae,Blue,1.0,2315.0,0,1,2,choice,3,4,-1,18.0,3,3,2,2
469,589,w2b37aae,Food,1.0,1494.0,0,2,2,choice,1,4,-2,4.0,3,3,0,2
470,590,w2b37aae,Yellow,1.0,2895.0,1,3,2,choice,1,4,4,-4.0,3,3,0,2
471,591,w2b37aae,Red,1.0,1870.0,1,4,2,choice,2,4,4,7.0,3,3,1,2
472,592,w2b37aae,Object,0.0,1813.0,0,5,2,choice,2,4,8,14.0,3,3,1,1
473,593,w2b37aae,Animal,1.0,1792.0,1,6,2,choice,3,4,1,3.0,3,3,2,2
474,594,w2b37aae,Food,1.0,3774.0,0,1,3,choice,2,4,-5,1.0,4,4,1,1
475,595,w2b37aae,Animal,0.0,1325.0,1,2,3,choice,1,4,-3,-3.0,4,4,1,2
476,596,w2b37aae,Green,1.0,1965.0,0,3,3,choice,3,4,-1,-15.0,4,4,3,3
477,597,w2b37aae,Scene,0.0,1569.0,0,4,3,choice,3,4,1,-15.0,4,4,2,2
478,598,w2b37aae,Blue,1.0,2597.0,1,5,3,choice,1,4,2,2.0,4,4,0,1
479,599,w2b37aae,Red,0.0,981.0,1,6,3,choice,2,4,-8,-4.0,4,4,1,1
480,600,w2b37aae,Animal,0.0,5468.0,0,1,4,choice,3,4,1,5.0,2,2,2,2
481,601,w2b37aae,Green,1.0,5484.0,0,2,4,choice,3,4,-4,7.0,2,2,1,1
482,602,w2b37aae,Blue,1.0,3559.0,1,3,4,choice,1,4,6,5.0,2,2,1,1
483,603,w2b37aae,Object,0.0,4131.0,1,4,4,choice,1,4,-5,2.0,2,2,0,0
484,604,w2b37aae,Yellow,0.0,1876.0,1,5,4,choice,2,4,-7,-8.0,2,2,0,0
485,605,w2b37aae,Scene,1.0,2050.0,0,6,4,choice,2,4,-1,-3.0,2,2,0,0
486,606,w2b37aae,Green,0.0,2892.0,1,1,5,choice,1,2,-2,-3.0,4,4,0,1
487,607,w2b37aae,Red,1.0,3639.0,1,2,5,choice,2,2,5,9.0,4,4,1,1
488,608,w2b37aae,Scene,0.0,4632.0,0,3,5,choice,2,1,1,-3.0,4,4,1,1
489,609,w2b37aae,Yellow,1.0,2424.0,1,4,5,choice,3,2,4,0.0,4,4,3,3
490,610,w2b37aae,Object,1.0,1558.0,0,5,5,choice,3,2,-1,13.0,4,4,2,2
491,611,w2b37aae,Food,0.0,1927.0,0,6,5,choice,1,2,7,-4.0,4,4,1,1
492,612,w4ebac4c,Animal,1.0,2514.0,1,1,1,choice,1,3,6,6.0,5,5,0,0
493,613,w4ebac4c,Yellow,1.0,5753.0,1,2,1,choice,1,2,9,3.0,5,5,1,1
494,614,w4ebac4c,Scene,1.0,1438.0,1,3,1,choice,2,4,2,12.0,5,5,2,2
495,615,w4ebac4c,Blue,1.0,1868.0,0,4,1,choice,3,3,-2,6.0,5,5,2,2
496,616,w4ebac4c,Green,0.0,2758.0,1,5,1,choice,2,3,-1,0.0,5,5,2,2
497,617,w4ebac4c,Food,0.0,4560.0,1,6,1,choice,3,3,-2,-9.0,5,5,3,3
498,618,w4ebac4c,Scene,1.0,2267.0,1,1,2,choice,1,3,5,2.0,5,5,1,2
499,619,w4ebac4c,Object,0.0,4050.0,1,2,2,choice,3,2,-2,2.0,5,5,2,2
500,620,w4ebac4c,Food,0.0,5144.0,1,3,2,choice,2,2,-1,11.0,5,5,2,2
501,621,w4ebac4c,Red,1.0,826.0,1,4,2,choice,2,1,5,11.0,5,5,1,1
502,622,w4ebac4c,Green,1.0,3011.0,0,5,2,choice,1,3,-6,-6.0,5,5,1,1
503,623,w4ebac4c,Yellow,0.0,2402.0,0,6,2,choice,3,3,3,10.0,5,5,3,3
504,624,w4ebac4c,Green,0.0,4297.0,0,1,3,choice,2,1,3,1.0,3,3,0,0
505,625,w4ebac4c,Scene,1.0,4075.0,1,2,3,choice,2,4,5,3.0,3,3,1,1
506,626,w4ebac4c,Food,1.0,2825.0,0,3,3,choice,1,4,-9,8.0,3,3,1,1
507,627,w4ebac4c,Animal,0.0,2403.0,0,4,3,choice,3,1,3,17.0,3,3,1,1
508,628,w4ebac4c,Red,1.0,526.0,1,5,3,choice,3,2,4,19.0,3,3,3,3
509,629,w4ebac4c,Yellow,0.0,1396.0,1,6,3,choice,1,3,-8,8.0,3,3,0,0
510,630,w4ebac4c,Animal,0.0,3085.0,1,1,4,choice,1,1,-6,8.0,4,4,1,1
511,631,w4ebac4c,Object,1.0,3425.0,0,2,4,choice,2,2,-2,-9.0,4,4,2,2
512,632,w4ebac4c,Scene,1.0,2412.0,1,3,4,choice,3,4,1,3.0,4,4,1,1
513,633,w4ebac4c,Blue,0.0,1257.0,1,4,4,choice,2,2,-7,-2.0,4,4,1,1
514,634,w4ebac4c,Red,0.0,2376.0,0,5,4,choice,1,2,3,-6.0,4,4,1,1
515,635,w4ebac4c,Yellow,0.0,2357.0,1,6,4,choice,3,2,-3,10.0,4,4,2,3
516,636,w4ebac4c,Red,1.0,3393.0,0,1,5,choice,1,2,-4,-6.0,2,2,1,1
517,637,w4ebac4c,Object,1.0,2160.0,0,2,5,choice,2,0,-7,1.0,2,2,1,1
518,638,w4ebac4c,Food,1.0,2662.0,1,3,5,choice,1,2,6,3.0,2,2,0,0
519,639,w4ebac4c,Green,0.0,1414.0,0,4,5,choice,3,3,5,0.0,2,2,1,1
520,640,w4ebac4c,Blue,0.0,4531.0,1,5,5,choice,2,3,-5,-9.0,2,2,0,1
521,641,w4ebac4c,Animal,1.0,3429.0,0,6,5,choice,3,4,-3,-19.0,2,2,1,2
522,642,w95f2351,Green,1.0,1350.0,1,1,1,choice,3,1,3,1.0,5,5,3,3
523,643,w95f2351,Animal,1.0,3804.0,1,2,1,choice,1,1,6,4.0,5,5,1,1
524,644,w95f2351,Food,0.0,3859.0,1,3,1,choice,2,1,-5,-5.0,5,5,2,2
525,645,w95f2351,Red,0.0,5035.0,1,4,1,choice,1,0,-4,3.0,5,5,0,0
526,646,w95f2351,Yellow,1.0,2922.0,1,5,1,choice,2,1,1,1.0,5,5,2,2
527,647,w95f2351,Object,0.0,6582.0,1,6,1,choice,3,1,-1,6.0,5,5,2,2
528,648,w95f2351,Blue,1.0,4076.0,1,1,2,choice,2,2,1,1.0,6,6,2,2
529,649,w95f2351,Food,1.0,5577.0,1,2,2,choice,2,2,3,3.0,6,6,2,2
530,650,w95f2351,Animal,1.0,3789.0,1,3,2,choice,3,3,1,1.0,6,6,3,3
531,651,w95f2351,Scene,0.0,1471.0,1,4,2,choice,1,1,-8,-8.0,6,6,1,1
532,652,w95f2351,Green,0.0,2964.0,0,5,2,choice,3,3,2,2.0,6,6,3,3
533,653,w95f2351,Red,0.0,1935.0,1,6,2,choice,1,1,-7,-7.0,6,6,1,1
534,654,w95f2351,Blue,1.0,4054.0,1,1,3,choice,2,2,3,3.0,6,6,2,2
535,655,w95f2351,Yellow,0.0,4268.0,1,2,3,choice,1,1,-6,-6.0,6,6,1,1
536,656,w95f2351,Object,1.0,2371.0,1,3,3,choice,2,2,2,2.0,6,6,2,2
537,657,w95f2351,Red,0.0,3634.0,0,4,3,choice,3,1,1,1.0,6,6,3,3
538,658,w95f2351,Scene,0.0,1942.0,0,5,3,choice,3,2,3,3.0,6,6,3,3
539,659,w95f2351,Food,0.0,4720.0,1,6,3,choice,1,1,-7,-7.0,6,6,1,1
540,660,w95f2351,Yellow,1.0,5585.0,1,1,4,choice,2,1,8,8.0,5,5,1,2
541,661,w95f2351,Object,1.0,3108.0,0,2,4,choice,3,2,-3,-3.0,5,5,3,3
542,662,w95f2351,Scene,1.0,4770.0,1,3,4,choice,1,1,2,2.0,5,5,1,1
543,663,w95f2351,Green,0.0,4215.0,1,4,4,choice,1,1,-4,-4.0,5,5,1,1
544,664,w95f2351,Blue,0.0,2821.0,0,5,4,choice,3,2,1,1.0,5,5,3,3
545,665,w95f2351,Animal,1.0,2676.0,1,6,4,choice,2,1,6,6.0,5,5,1,1
546,666,w95f2351,Animal,0.0,7247.0,1,1,5,choice,1,1,-3,-3.0,6,6,1,1
547,667,w95f2351,Yellow,1.0,3961.0,0,2,5,choice,2,2,-2,-1.0,6,6,2,2
548,668,w95f2351,Red,0.0,818.0,1,3,5,choice,3,3,-1,-1.0,6,6,3,3
549,669,w95f2351,Blue,1.0,3841.0,1,4,5,choice,1,1,6,6.0,6,6,1,1
550,670,w95f2351,Food,0.0,5544.0,0,5,5,choice,3,2,3,3.0,6,6,3,3
551,671,w95f2351,Scene,1.0,5358.0,1,6,5,choice,2,1,3,4.0,6,6,2,2
552,672,w4e902e8,Object,1.0,3855.0,1,1,1,choice,1,4,8,8.0,6,6,1,1
553,673,w4e902e8,Yellow,0.0,4195.0,0,2,1,choice,1,4,6,-6.0,6,6,1,1
554,674,w4e902e8,Scene,1.0,2146.0,0,3,1,choice,3,4,-2,4.0,6,6,3,3
555,675,w4e902e8,Animal,0.0,2888.0,1,4,1,choice,2,4,-6,3.0,6,6,2,2
556,676,w4e902e8,Blue,1.0,4013.0,0,5,1,choice,3,4,-2,15.0,6,6,3,3
557,677,w4e902e8,Red,1.0,6661.0,0,6,1,choice,2,4,-4,6.0,6,6,2,2
558,678,w4e902e8,Yellow,0.0,3251.0,1,1,2,choice,3,4,-1,-1.0,5,5,3,3
559,679,w4e902e8,Red,1.0,5291.0,1,2,2,choice,1,4,5,3.0,5,5,0,0
560,680,w4e902e8,Scene,1.0,6898.0,1,3,2,choice,2,4,3,-13.0,5,5,2,3
561,681,w4e902e8,Green,0.0,3019.0,1,4,2,choice,2,4,-2,-15.0,5,5,2,2
562,682,w4e902e8,Food,1.0,4153.0,0,5,2,choice,1,4,-3,-3.0,5,5,1,1
563,683,w4e902e8,Object,1.0,3431.0,1,6,2,choice,3,4,2,3.0,5,5,2,2
564,684,w4e902e8,Food,0.0,4840.0,0,1,3,choice,3,4,2,-7.0,3,3,1,2
565,685,w4e902e8,Blue,0.0,4103.0,1,2,3,choice,2,4,-8,-2.0,3,3,0,0
566,686,w4e902e8,Green,1.0,1353.0,0,3,3,choice,3,4,-1,-9.0,3,3,3,3
567,687,w4e902e8,Red,0.0,3470.0,0,4,3,choice,1,4,4,-3.0,3,3,0,1
568,688,w4e902e8,Animal,0.0,1758.0,1,5,3,choice,1,4,-6,-1.0,3,3,1,1
569,689,w4e902e8,Scene,0.0,2152.0,1,6,3,choice,2,4,-1,-6.0,3,3,1,2
570,690,w4e902e8,Red,0.0,2474.0,1,1,4,choice,3,4,-1,3.0,4,4,1,1
571,691,w4e902e8,Object,0.0,1109.0,0,2,4,choice,2,4,7,4.0,4,4,1,2
572,692,w4e902e8,Food,0.0,1550.0,1,3,4,choice,1,4,-2,-4.0,4,4,0,1
573,693,w4e902e8,Animal,0.0,1285.0,0,4,4,choice,3,4,1,3.0,4,4,3,3
574,694,w4e902e8,Green,0.0,1451.0,0,5,4,choice,2,4,2,5.0,4,4,2,3
575,695,w4e902e8,Blue,0.0,646.0,0,6,4,choice,1,4,5,-5.0,4,4,1,1
576,696,w4e902e8,Animal,1.0,4204.0,0,1,5,choice,1,4,-2,3.0,4,4,1,2
577,697,w4e902e8,Object,1.0,3587.0,1,2,5,choice,2,4,8,-1.0,4,4,1,1
578,698,w4e902e8,Yellow,0.0,1481.0,1,3,5,choice,3,4,-1,14.0,4,4,3,3
579,699,w4e902e8,Blue,1.0,2187.0,1,4,5,choice,2,4,5,-6.0,4,4,0,0
580,700,w4e902e8,Green,0.0,1768.0,0,5,5,choice,1,4,4,-7.0,4,4,1,2
581,701,w4e902e8,Food,1.0,2206.0,1,6,5,choice,3,4,2,-1.0,4,4,2,2
582,702,w8f37d35,Green,1.0,4753.0,1,1,1,choice,2,3,4,-2.0,2,2,0,0
583,703,w8f37d35,Object,1.0,7066.0,1,2,1,choice,2,3,3,0.0,2,2,0,0
584,704,w8f37d35,Yellow,1.0,1712.0,1,3,1,choice,1,3,7,-1.0,2,2,0,1
585,705,w8f37d35,Animal,1.0,4638.0,0,4,1,choice,3,4,-3,-3.0,2,2,1,1
586,706,w8f37d35,Red,0.0,2377.0,1,5,1,choice,3,3,-2,0.0,2,2,2,2
587,707,w8f37d35,Food,0.0,2598.0,0,6,1,choice,1,5,9,0.0,2,2,1,2
588,708,w8f37d35,Blue,0.0,2713.0,0,1,2,choice,2,2,2,-6.0,3,3,1,1
589,709,w8f37d35,Yellow,1.0,1627.0,0,2,2,choice,3,3,-2,-2.0,3,3,2,2
590,710,w8f37d35,Red,0.0,2426.0,0,3,2,choice,1,3,2,2.0,3,3,0,0
591,711,w8f37d35,Scene,,,0,4,2,choice,3,3,1,-4.0,3,3,2,2
592,712,w8f37d35,Food,1.0,1786.0,0,5,2,choice,1,4,-3,0.0,3,3,0,0
593,713,w8f37d35,Animal,0.0,4867.0,0,6,2,choice,2,4,4,-2.0,3,3,1,1
594,714,w8f37d35,Green,0.0,2182.0,1,1,3,choice,3,4,-4,-4.0,1,1,0,0
595,715,w8f37d35,Object,1.0,1519.0,0,2,3,choice,2,4,-5,-5.0,1,1,0,0
596,716,w8f37d35,Animal,0.0,1555.0,0,3,3,choice,1,4,9,-2.0,1,1,0,1
597,717,w8f37d35,Red,1.0,1202.0,1,4,3,choice,1,3,7,0.0,1,1,0,1
598,718,w8f37d35,Food,,,0,5,3,choice,3,5,-2,0.0,1,1,1,1
599,719,w8f37d35,Blue,0.0,461.0,1,6,3,choice,2,4,-1,-3.0,1,1,1,1
600,720,w8f37d35,Green,0.0,3880.0,0,1,4,choice,1,4,4,0.0,2,2,1,1
601,721,w8f37d35,Red,1.0,3281.0,1,2,4,choice,2,4,4,-2.0,2,2,0,0
602,722,w8f37d35,Scene,1.0,1856.0,1,3,4,choice,3,3,3,0.0,2,2,2,2
603,723,w8f37d35,Blue,0.0,1639.0,1,4,4,choice,3,4,-2,0.0,2,2,1,1
604,724,w8f37d35,Object,1.0,1153.0,1,5,4,choice,2,3,6,-2.0,2,2,0,0
605,725,w8f37d35,Animal,0.0,621.0,1,6,4,choice,1,2,-3,0.0,2,2,0,0
606,726,w8f37d35,Object,1.0,2046.0,1,1,5,choice,1,4,8,8.0,3,3,1,1
607,727,w8f37d35,Blue,0.0,5726.0,0,2,5,choice,1,4,7,0.0,3,3,1,1
608,728,w8f37d35,Yellow,1.0,2903.0,0,3,5,choice,3,4,-1,6.0,3,3,2,2
609,729,w8f37d35,Green,0.0,3129.0,1,4,5,choice,2,4,-3,-4.0,3,3,0,0
610,730,w8f37d35,Food,1.0,1347.0,0,5,5,choice,3,4,-4,1.0,3,3,1,1
611,731,w8f37d35,Scene,1.0,1681.0,0,6,5,choice,2,0,-1,-7.0,3,3,1,1
612,750,wada012d,Yellow,1.0,3859.0,0,1,1,choice,1,2,-5,-2.0,2,2,1,1
613,751,wada012d,Scene,1.0,771.0,0,2,1,choice,3,3,-1,6.0,2,2,2,2
614,752,wada012d,Green,1.0,1299.0,1,3,1,choice,3,3,1,5.0,2,2,0,1
615,753,wada012d,Object,1.0,2322.0,1,4,1,choice,1,3,2,2.0,2,2,0,1
616,754,wada012d,Food,1.0,1215.0,0,5,1,choice,2,4,-6,0.0,2,2,0,0
617,755,wada012d,Blue,1.0,2501.0,0,6,1,choice,2,3,-1,5.0,2,2,1,1
618,756,wada012d,Object,1.0,2656.0,1,1,2,choice,2,2,4,-2.0,6,6,2,2
619,757,wada012d,Red,1.0,1835.0,1,2,2,choice,3,2,3,4.0,6,6,3,3
620,758,wada012d,Food,1.0,1277.0,1,3,2,choice,3,3,3,3.0,6,6,3,3
621,759,wada012d,Blue,1.0,701.0,1,4,2,choice,2,2,6,-1.0,6,6,2,2
622,760,wada012d,Yellow,0.0,3045.0,1,5,2,choice,1,1,-8,-4.0,6,6,1,1
623,761,wada012d,Scene,1.0,2900.0,0,6,2,choice,1,2,-6,-2.0,6,6,1,1
624,762,wada012d,Object,0.0,4279.0,1,1,3,choice,1,1,-2,-3.0,6,6,1,1
625,763,wada012d,Yellow,1.0,4622.0,0,2,3,choice,3,2,-1,-3.0,6,6,3,3
626,764,wada012d,Scene,1.0,3227.0,1,3,3,choice,3,3,3,3.0,6,6,3,3
627,765,wada012d,Red,1.0,574.0,1,4,3,choice,1,1,7,8.0,6,6,1,1
628,766,wada012d,Blue,0.0,2475.0,1,5,3,choice,2,2,-6,-4.0,6,6,2,2
629,767,wada012d,Animal,0.0,1539.0,1,6,3,choice,2,2,-1,1.0,6,6,2,2
630,768,wada012d,Animal,,,0,1,4,choice,3,2,-1,-7.0,3,3,2,2
631,769,wada012d,Food,0.0,5302.0,0,2,4,choice,1,0,4,-5.0,3,3,0,0
632,770,wada012d,Red,1.0,1499.0,0,3,4,choice,2,2,-4,4.0,3,3,2,2
633,771,wada012d,Green,0.0,5173.0,1,4,4,choice,1,3,-3,-5.0,3,3,0,0
634,772,wada012d,Yellow,1.0,724.0,1,5,4,choice,3,3,3,-13.0,3,3,1,1
635,773,wada012d,Object,1.0,889.0,0,6,4,choice,2,2,-7,-2.0,3,3,1,1
636,774,wada012d,Scene,1.0,2851.0,0,1,5,choice,1,2,-4,-6.0,3,3,1,2
637,775,wada012d,Red,1.0,7104.0,0,2,5,choice,2,2,-5,1.0,3,3,1,1
638,776,wada012d,Food,0.0,1362.0,1,3,5,choice,2,1,-3,-1.0,3,3,1,1
639,777,wada012d,Animal,1.0,1166.0,1,4,5,choice,3,2,4,-8.0,3,3,1,1
640,778,wada012d,Green,1.0,1358.0,0,5,5,choice,3,2,-3,-7.0,3,3,2,2
641,779,wada012d,Blue,1.0,1075.0,1,6,5,choice,1,2,5,-9.0,3,3,0,1
642,780,wc9d64f4,Yellow,0.0,7181.0,0,1,1,choice,2,2,2,7.0,2,2,0,0
643,781,wc9d64f4,Animal,1.0,996.0,1,2,1,choice,1,1,7,2.0,2,2,1,1
644,782,wc9d64f4,Object,0.0,2800.0,1,3,1,choice,2,0,-3,5.0,2,2,0,2
645,783,wc9d64f4,Food,1.0,1518.0,0,4,1,choice,3,1,-2,12.0,2,2,1,1
646,784,wc9d64f4,Red,1.0,1326.0,0,5,1,choice,1,1,-3,2.0,2,2,1,3
647,785,wc9d64f4,Green,1.0,1148.0,1,6,1,choice,3,1,3,10.0,2,2,1,1
648,786,wc9d64f4,Blue,1.0,2429.0,1,1,2,choice,2,2,2,5.0,4,4,2,2
649,787,wc9d64f4,Animal,1.0,1849.0,0,2,2,choice,1,1,-7,-7.0,4,4,0,0
650,788,wc9d64f4,Scene,1.0,2112.0,1,3,2,choice,2,1,5,11.0,4,4,1,1
651,789,wc9d64f4,Object,0.0,2490.0,0,4,2,choice,3,1,1,-2.0,4,4,3,3
652,790,wc9d64f4,Green,1.0,2294.0,1,5,2,choice,1,1,2,2.0,4,4,1,2
653,791,wc9d64f4,Yellow,0.0,2010.0,1,6,2,choice,3,2,-5,-5.0,4,4,1,2
654,792,wc9d64f4,Yellow,0.0,3314.0,1,1,3,choice,1,1,-2,-2.0,4,4,1,1
655,793,wc9d64f4,Animal,0.0,2508.0,1,2,3,choice,3,1,-1,13.0,4,4,2,3
656,794,wc9d64f4,Object,1.0,2911.0,1,3,3,choice,1,1,6,6.0,4,4,1,2
657,795,wc9d64f4,Food,0.0,2357.0,0,4,3,choice,2,1,4,-1.0,4,4,1,1
658,796,wc9d64f4,Red,1.0,1162.0,1,5,3,choice,3,1,5,16.0,4,4,1,1
659,797,wc9d64f4,Blue,1.0,1062.0,1,6,3,choice,2,1,6,4.0,4,4,2,3
660,798,wc9d64f4,Blue,1.0,2101.0,1,1,4,choice,1,1,6,6.0,5,5,1,1
661,799,wc9d64f4,Green,1.0,1400.0,0,2,4,choice,3,1,-4,12.0,5,5,2,2
662,800,wc9d64f4,Red,1.0,2194.0,0,3,4,choice,2,1,-1,-1.0,5,5,2,2
663,801,wc9d64f4,Scene,0.0,3066.0,0,4,4,choice,2,1,5,5.0,5,5,2,2
664,802,wc9d64f4,Food,0.0,4774.0,1,5,4,choice,1,1,-5,-5.0,5,5,0,0
665,803,wc9d64f4,Animal,1.0,1401.0,1,6,4,choice,3,1,1,17.0,5,5,3,4
666,804,wc9d64f4,Green,1.0,1578.0,1,1,5,choice,1,1,5,5.0,3,3,1,1
667,805,wc9d64f4,Object,1.0,1278.0,0,2,5,choice,1,1,-4,-4.0,3,3,0,0
668,806,wc9d64f4,Blue,0.0,1650.0,1,3,5,choice,3,1,-3,-3.0,3,3,1,2
669,807,wc9d64f4,Yellow,1.0,1676.0,1,4,5,choice,2,1,6,6.0,3,3,1,1
670,808,wc9d64f4,Food,0.0,1640.0,0,5,5,choice,2,1,8,8.0,3,3,1,1
671,809,wc9d64f4,Scene,1.0,2064.0,1,6,5,choice,3,3,4,4.0,3,3,2,3
672,810,w28f36aa,Object,0.0,2956.0,1,1,2,choice,1,2,-9,-6.0,4,4,1,2
673,811,w28f36aa,Green,1.0,2411.0,0,2,2,choice,1,1,-6,-6.0,4,4,1,1
674,812,w28f36aa,Scene,0.0,3835.0,0,3,2,choice,2,1,5,11.0,4,4,1,1
675,813,w28f36aa,Blue,1.0,2124.0,1,4,2,choice,2,2,3,9.0,4,4,2,2
676,814,w28f36aa,Yellow,1.0,2910.0,1,5,2,choice,3,1,1,-1.0,4,4,1,1
677,815,w28f36aa,Food,0.0,2813.0,0,6,2,choice,3,3,2,-3.0,4,4,2,2
678,816,w28f36aa,Object,0.0,4402.0,1,1,3,choice,2,3,-6,-5.0,3,3,1,2
679,817,w28f36aa,Animal,1.0,4815.0,1,2,3,choice,1,0,8,8.0,3,3,1,1
680,818,w28f36aa,Red,1.0,4248.0,0,3,3,choice,2,2,-1,5.0,3,3,1,1
681,819,w28f36aa,Blue,0.0,3865.0,1,4,3,choice,3,2,-3,-5.0,3,3,2,2
682,820,w28f36aa,Scene,1.0,4582.0,0,5,3,choice,3,2,-1,-8.0,3,3,1,1
683,821,w28f36aa,Green,1.0,2791.0,1,6,3,choice,1,1,5,-5.0,3,3,0,1
684,822,w28f36aa,Green,1.0,2169.0,1,1,4,choice,3,3,1,-15.0,5,5,3,3
685,823,w28f36aa,Red,1.0,1639.0,1,2,4,choice,2,2,1,10.0,5,5,1,1
686,824,w28f36aa,Animal,1.0,3793.0,0,3,4,choice,3,3,-2,-4.0,5,5,3,3
687,825,w28f36aa,Yellow,0.0,1526.0,1,4,4,choice,1,1,-4,-7.0,5,5,1,1
688,826,w28f36aa,Object,0.0,3044.0,0,5,4,choice,1,1,2,-7.0,5,5,1,1
689,827,w28f36aa,Food,0.0,2701.0,1,6,4,choice,2,2,-2,-1.0,5,5,1,1
690,828,w28f36aa,Food,0.0,2968.0,0,1,5,choice,1,1,3,4.0,5,5,1,1
691,829,w28f36aa,Yellow,1.0,4910.0,0,2,5,choice,1,1,-4,7.0,5,5,1,1
692,830,w28f36aa,Green,0.0,5381.0,0,3,5,choice,2,2,8,-9.0,5,5,2,2
693,831,w28f36aa,Scene,0.0,3377.0,0,4,5,choice,2,2,6,5.0,5,5,2,2
694,832,w28f36aa,Animal,1.0,2572.0,0,5,5,choice,3,3,-3,7.0,5,5,2,2
695,833,w28f36aa,Red,0.0,2368.0,0,6,5,choice,3,2,2,18.0,5,5,2,2
696,834,w67efce7,Animal,0.0,4811.0,1,1,1,choice,1,1,-3,-3.0,6,6,1,1
697,835,w67efce7,Scene,1.0,3434.0,1,2,1,choice,2,1,1,-13.0,6,6,2,2
698,836,w67efce7,Blue,1.0,2231.0,1,3,1,choice,1,1,4,4.0,6,6,1,1
699,837,w67efce7,Red,0.0,3164.0,1,4,1,choice,2,1,-4,-8.0,6,6,2,2
700,838,w67efce7,Object,1.0,3837.0,1,5,1,choice,3,2,1,-3.0,6,6,3,3
701,839,w67efce7,Yellow,0.0,1536.0,1,6,1,choice,3,3,-1,-15.0,6,6,3,3
702,840,w67efce7,Food,1.0,3840.0,1,1,2,choice,3,2,2,2.0,5,5,3,3
703,841,w67efce7,Scene,0.0,3483.0,1,2,2,choice,1,1,-7,-7.0,5,5,0,0
704,842,w67efce7,Green,0.0,1650.0,1,3,2,choice,2,1,-5,-5.0,5,5,2,2
705,843,w67efce7,Yellow,1.0,2508.0,0,4,2,choice,1,0,-5,-5.0,5,5,1,1
706,844,w67efce7,Object,0.0,2005.0,1,5,2,choice,2,2,-2,-2.0,5,5,2,2
707,845,w67efce7,Blue,1.0,780.0,1,6,2,choice,3,2,3,3.0,5,5,2,2
708,846,w67efce7,Object,1.0,4554.0,0,1,3,choice,2,0,-6,-8.0,5,5,1,1
709,847,w67efce7,Animal,0.0,2940.0,1,2,3,choice,3,2,-2,-3.0,5,5,3,3
710,848,w67efce7,Blue,1.0,2907.0,1,3,3,choice,1,1,6,6.0,5,5,1,1
711,849,w67efce7,Green,1.0,814.0,0,4,3,choice,3,2,-4,-4.0,5,5,2,2
712,850,w67efce7,Scene,1.0,1652.0,1,5,3,choice,1,1,8,8.0,5,5,1,1
713,851,w67efce7,Yellow,0.0,2253.0,1,6,3,choice,2,1,-2,-5.0,5,5,2,2
714,852,w67efce7,Food,1.0,4153.0,1,1,4,choice,3,2,1,2.0,5,5,3,3
715,853,w67efce7,Animal,0.0,1958.0,1,2,4,choice,2,1,-2,-14.0,5,5,2,3
716,854,w67efce7,Object,0.0,4687.0,1,3,4,choice,1,1,-5,-2.0,5,5,0,0
717,855,w67efce7,Green,0.0,973.0,1,4,4,choice,2,1,-7,-7.0,5,5,2,2
718,856,w67efce7,Red,1.0,4087.0,0,5,4,choice,3,2,-2,-11.0,5,5,2,2
719,857,w67efce7,Blue,1.0,5370.0,1,6,4,choice,1,1,3,4.0,5,5,1,1
720,858,w67efce7,Scene,1.0,3793.0,1,1,5,choice,3,3,4,4.0,6,6,3,3
721,859,w67efce7,Green,1.0,5115.0,1,2,5,choice,1,1,7,7.0,6,6,1,1
722,860,w67efce7,Red,0.0,4337.0,1,3,5,choice,3,2,-1,-1.0,6,6,3,3
723,861,w67efce7,Yellow,0.0,2844.0,1,4,5,choice,2,1,-7,-7.0,6,6,2,2
724,862,w67efce7,Food,0.0,2494.0,1,5,5,choice,2,2,-2,-2.0,6,6,2,2
725,863,w67efce7,Animal,0.0,6074.0,1,6,5,choice,1,1,-3,-3.0,6,6,1,1
726,870,we0e98d2,Scene,1.0,3790.0,1,1,1,choice,2,4,1,1.0,6,6,2,2
727,871,we0e98d2,Yellow,0.0,6423.0,1,2,1,choice,1,3,-4,-4.0,6,6,1,1
728,872,we0e98d2,Animal,0.0,5757.0,1,3,1,choice,3,0,-2,-2.0,6,6,3,3
729,873,we0e98d2,Object,1.0,3166.0,1,4,1,choice,1,4,2,2.0,6,6,1,1
730,874,we0e98d2,Green,1.0,4471.0,1,5,1,choice,2,3,4,4.0,6,6,2,2
731,875,we0e98d2,Red,1.0,3457.0,1,6,1,choice,3,3,1,1.0,6,6,3,3
732,876,we0e98d2,Yellow,1.0,4005.0,0,1,2,choice,2,3,-4,-4.0,6,6,2,2
733,877,we0e98d2,Blue,1.0,4794.0,1,2,2,choice,3,3,1,1.0,6,6,3,3
734,878,we0e98d2,Object,0.0,3568.0,0,3,2,choice,3,4,1,1.0,6,6,3,3
735,879,we0e98d2,Animal,0.0,3900.0,1,4,2,choice,1,4,-9,-9.0,6,6,1,1
736,880,we0e98d2,Scene,1.0,2560.0,1,5,2,choice,2,4,1,1.0,6,6,2,2
737,881,we0e98d2,Green,0.0,2758.0,1,6,2,choice,1,1,-4,-4.0,6,6,1,1
738,882,we0e98d2,Red,1.0,5857.0,1,1,3,choice,2,2,2,2.0,6,6,2,2
739,883,we0e98d2,Object,0.0,4167.0,1,2,3,choice,1,1,-2,-2.0,6,6,1,1
740,884,we0e98d2,Food,1.0,4843.0,1,3,3,choice,3,3,2,2.0,6,6,3,3
741,885,we0e98d2,Blue,1.0,1882.0,1,4,3,choice,1,1,4,4.0,6,6,1,1
742,886,we0e98d2,Scene,1.0,2079.0,1,5,3,choice,2,2,5,5.0,6,6,2,2
743,887,we0e98d2,Green,0.0,2544.0,1,6,3,choice,3,2,-1,-1.0,6,6,3,3
744,888,we0e98d2,Scene,1.0,2905.0,1,1,4,choice,2,2,1,1.0,6,6,2,2
745,889,we0e98d2,Animal,0.0,2304.0,1,2,4,choice,1,1,-3,-3.0,6,6,1,1
746,890,we0e98d2,Red,1.0,2034.0,1,3,4,choice,1,1,8,8.0,6,6,1,1
747,891,we0e98d2,Blue,0.0,3206.0,1,4,4,choice,3,3,-1,-1.0,6,6,3,3
748,892,we0e98d2,Food,1.0,4069.0,1,5,4,choice,3,3,5,5.0,6,6,3,3
749,893,we0e98d2,Yellow,0.0,3329.0,1,6,4,choice,2,2,-4,-4.0,6,6,2,2
750,894,we0e98d2,Object,,,0,1,5,choice,3,2,1,1.0,6,6,3,3
751,895,we0e98d2,Blue,0.0,1996.0,1,2,5,choice,1,1,-6,-6.0,6,6,1,1
752,896,we0e98d2,Yellow,1.0,3547.0,1,3,5,choice,3,3,2,2.0,6,6,3,3
753,897,we0e98d2,Red,0.0,3068.0,1,4,5,choice,2,2,-1,-1.0,6,6,2,2
754,898,we0e98d2,Food,0.0,2753.0,1,5,5,choice,1,1,-7,-7.0,6,6,1,1
755,899,we0e98d2,Animal,1.0,2752.0,1,6,5,choice,2,2,1,1.0,6,6,2,2
756,900,w7978f92,Animal,0.0,2856.0,1,1,1,choice,3,2,-1,-3.0,6,6,3,3
757,901,w7978f92,Object,1.0,2714.0,1,2,1,choice,2,2,4,5.0,6,6,2,2
758,902,w7978f92,Yellow,0.0,3555.0,0,3,1,choice,1,1,7,5.0,6,6,1,1
759,903,w7978f92,Green,0.0,3403.0,1,4,1,choice,3,1,-3,-1.0,6,6,3,3
760,904,w7978f92,Red,1.0,2963.0,1,5,1,choice,2,2,5,4.0,6,6,2,2
761,905,w7978f92,Scene,0.0,4209.0,0,6,1,choice,1,1,6,6.0,6,6,1,1
762,906,w7978f92,Yellow,1.0,2747.0,1,1,2,choice,2,2,1,1.0,6,6,2,2
763,907,w7978f92,Green,0.0,3306.0,1,2,2,choice,3,2,-6,-6.0,6,6,3,3
764,908,w7978f92,Scene,0.0,3851.0,1,3,2,choice,1,1,-8,-8.0,6,6,1,1
765,909,w7978f92,Blue,1.0,4060.0,1,4,2,choice,1,1,5,5.0,6,6,1,1
766,910,w7978f92,Food,1.0,2634.0,1,5,2,choice,2,2,6,6.0,6,6,2,2
767,911,w7978f92,Object,1.0,4859.0,1,6,2,choice,3,3,2,2.0,6,6,3,3
768,912,w7978f92,Yellow,0.0,3488.0,1,1,3,choice,1,1,-3,-3.0,6,6,1,1
769,913,w7978f92,Blue,1.0,3118.0,1,2,3,choice,3,1,5,5.0,6,6,3,3
770,914,w7978f92,Red,0.0,3506.0,1,3,3,choice,2,2,-3,-3.0,6,6,2,2
771,915,w7978f92,Food,1.0,2826.0,1,4,3,choice,1,1,6,6.0,6,6,1,1
772,916,w7978f92,Animal,0.0,3933.0,1,5,3,choice,2,1,-6,-6.0,6,6,2,2
773,917,w7978f92,Scene,1.0,3959.0,0,6,3,choice,3,2,-1,-1.0,6,6,3,3
774,918,w7978f92,Blue,0.0,4337.0,0,1,4,choice,1,1,2,3.0,5,5,1,2
775,919,w7978f92,Yellow,1.0,4065.0,0,2,4,choice,3,2,-2,0.0,5,5,2,2
776,920,w7978f92,Food,1.0,1759.0,1,3,4,choice,2,1,3,3.0,5,5,1,1
777,921,w7978f92,Scene,0.0,3635.0,0,4,4,choice,3,2,1,4.0,5,5,3,3
778,922,w7978f92,Red,1.0,3630.0,1,5,4,choice,2,1,1,1.0,5,5,2,2
779,923,w7978f92,Animal,1.0,3415.0,0,6,4,choice,1,1,-3,-3.0,5,5,1,2
780,924,w7978f92,Animal,0.0,3374.0,1,1,5,choice,1,1,-6,6.0,6,6,1,1
781,925,w7978f92,Blue,1.0,5030.0,0,2,5,choice,3,1,-4,9.0,6,6,3,3
782,926,w7978f92,Food,1.0,3082.0,1,3,5,choice,3,2,2,3.0,6,6,3,3
783,927,w7978f92,Red,1.0,1418.0,1,4,5,choice,2,2,2,13.0,6,6,2,2
784,928,w7978f92,Object,1.0,2911.0,1,5,5,choice,2,2,6,17.0,6,6,2,2
785,929,w7978f92,Green,1.0,5420.0,1,6,5,choice,1,1,4,4.0,6,6,1,1
786,930,wf3a15bc,Scene,1.0,3489.0,1,1,1,choice,2,2,2,1.0,2,2,0,0
787,931,wf3a15bc,Object,1.0,6503.0,1,2,1,choice,1,1,5,-4.0,2,2,0,1
788,932,wf3a15bc,Yellow,0.0,5247.0,1,3,1,choice,1,1,-6,-2.0,2,2,1,1
789,933,wf3a15bc,Green,1.0,5124.0,1,4,1,choice,2,2,6,0.0,2,2,0,1
790,934,wf3a15bc,Blue,0.0,5503.0,0,5,1,choice,3,1,2,9.0,2,2,1,1
791,935,wf3a15bc,Food,0.0,4495.0,1,6,1,choice,3,0,-5,10.0,2,2,2,3
792,936,wf3a15bc,Object,0.0,1362.0,1,1,2,choice,2,1,-5,9.0,4,4,2,2
793,937,wf3a15bc,Red,1.0,3630.0,1,2,2,choice,1,1,3,4.0,4,4,1,1
794,938,wf3a15bc,Animal,1.0,2963.0,0,3,2,choice,1,1,-4,-3.0,4,4,1,1
795,939,wf3a15bc,Scene,0.0,4311.0,0,4,2,choice,3,1,1,7.0,4,4,1,1
796,940,wf3a15bc,Green,1.0,3165.0,0,5,2,choice,3,2,-3,4.0,4,4,2,2
797,941,wf3a15bc,Yellow,1.0,3116.0,0,6,2,choice,2,2,-8,5.0,4,4,1,1
798,942,wf3a15bc,Animal,1.0,2066.0,0,1,3,choice,1,2,-3,3.0,3,3,0,0
799,943,wf3a15bc,Food,1.0,3881.0,1,2,3,choice,3,1,1,0.0,3,3,2,2
800,944,wf3a15bc,Red,1.0,3562.0,0,3,3,choice,3,1,-2,9.0,3,3,0,0
801,945,wf3a15bc,Scene,1.0,1824.0,0,4,3,choice,2,2,-1,6.0,3,3,1,2
802,946,wf3a15bc,Blue,0.0,2891.0,1,5,3,choice,2,2,-3,-3.0,3,3,2,2
803,947,wf3a15bc,Yellow,1.0,3036.0,1,6,3,choice,1,1,2,3.0,3,3,1,2
804,948,wf3a15bc,Green,1.0,4619.0,0,1,4,choice,2,2,-2,-6.0,2,2,0,1
805,949,wf3a15bc,Red,1.0,3218.0,1,2,4,choice,3,1,3,4.0,2,2,2,2
806,950,wf3a15bc,Blue,1.0,4106.0,0,3,4,choice,1,1,-7,-7.0,2,2,0,0
807,951,wf3a15bc,Object,0.0,3734.0,0,4,4,choice,1,1,4,-5.0,2,2,0,0
808,952,wf3a15bc,Animal,0.0,1272.0,1,5,4,choice,3,2,-4,0.0,2,2,1,1
809,953,wf3a15bc,Food,1.0,2366.0,0,6,4,choice,2,2,-6,-4.0,2,2,1,1
810,954,w65ae27b,Blue,1.0,2963.0,0,1,1,choice,2,4,-1,-14.0,2,2,1,1
811,955,w65ae27b,Green,0.0,1569.0,0,2,1,choice,1,3,5,-4.0,2,2,1,1
812,956,w65ae27b,Food,0.0,3088.0,0,3,1,choice,1,4,8,7.0,2,2,0,0
813,957,w65ae27b,Object,1.0,1051.0,0,4,1,choice,2,4,-5,-7.0,2,2,1,1
814,958,w65ae27b,Animal,1.0,1465.0,0,5,1,choice,3,4,-1,-9.0,2,2,1,1
815,959,w65ae27b,Red,0.0,769.0,1,6,1,choice,3,4,-2,9.0,2,2,0,0
816,960,w65ae27b,Yellow,1.0,2368.0,1,1,2,choice,3,1,3,-4.0,4,4,1,1
817,961,w65ae27b,Blue,0.0,2551.0,1,2,2,choice,1,1,-5,-5.0,4,4,1,1
818,962,w65ae27b,Object,0.0,2689.0,0,3,2,choice,2,1,2,9.0,4,4,1,1
819,963,w65ae27b,Animal,1.0,1873.0,1,4,2,choice,1,1,6,-1.0,4,4,0,0
820,964,w65ae27b,Green,1.0,1302.0,1,5,2,choice,2,2,7,14.0,4,4,2,2
821,965,w65ae27b,Scene,0.0,1902.0,1,6,2,choice,3,3,-3,-3.0,4,4,3,3
822,966,w65ae27b,Red,1.0,2078.0,1,1,3,choice,1,2,3,3.0,3,3,0,0
823,967,w65ae27b,Animal,0.0,3267.0,1,2,3,choice,1,2,-2,-4.0,3,3,1,1
824,968,w65ae27b,Green,1.0,2253.0,0,3,3,choice,3,3,-1,0.0,3,3,2,2
825,969,w65ae27b,Yellow,1.0,972.0,0,4,3,choice,2,2,-5,-1.0,3,3,1,1
826,970,w65ae27b,Object,1.0,880.0,1,5,3,choice,3,3,2,2.0,3,3,2,2
827,971,w65ae27b,Food,1.0,1341.0,0,6,3,choice,2,2,-3,4.0,3,3,0,0
828,972,w65ae27b,Scene,1.0,1846.0,0,1,4,choice,3,1,-1,4.0,2,2,1,1
829,973,w65ae27b,Red,1.0,1614.0,0,2,4,choice,1,2,-2,5.0,2,2,1,1
830,974,w65ae27b,Object,0.0,968.0,0,3,4,choice,1,2,3,3.0,2,2,0,0
831,975,w65ae27b,Blue,1.0,1983.0,1,4,4,choice,3,2,2,15.0,2,2,0,0
832,976,w65ae27b,Food,1.0,776.0,1,5,4,choice,2,2,5,5.0,2,2,1,1
833,977,w65ae27b,Green,1.0,543.0,1,6,4,choice,2,2,7,-8.0,2,2,1,1
834,978,w65ae27b,Yellow,1.0,1680.0,1,1,5,choice,1,2,6,8.0,2,2,1,1
835,979,w65ae27b,Blue,0.0,1642.0,0,2,5,choice,2,3,1,-2.0,2,2,0,1
836,980,w65ae27b,Scene,1.0,1038.0,0,3,5,choice,1,3,-5,5.0,2,2,1,2
837,981,w65ae27b,Food,1.0,1660.0,1,4,5,choice,3,3,5,7.0,2,2,1,1
838,982,w65ae27b,Animal,1.0,748.0,1,5,5,choice,2,3,6,1.0,2,2,0,0
839,983,w65ae27b,Red,1.0,958.0,0,6,5,choice,3,3,-1,7.0,2,2,1,1
840,1014,w5e13b84,Animal,1.0,6727.0,1,1,1,choice,2,4,6,0.0,1,1,1,3
841,1015,w5e13b84,Food,1.0,4318.0,1,2,1,choice,3,4,1,-2.0,1,1,0,0
842,1016,w5e13b84,Blue,0.0,636.0,1,3,1,choice,3,4,-1,3.0,1,1,0,0
843,1017,w5e13b84,Red,1.0,1171.0,1,4,1,choice,1,4,6,3.0,1,1,0,3
844,1018,w5e13b84,Object,1.0,3446.0,0,5,1,choice,1,4,-3,-4.0,1,1,0,1
845,1019,w5e13b84,Green,0.0,1175.0,1,6,1,choice,2,4,-1,-12.0,1,1,1,1
846,1020,w5e13b84,Animal,1.0,2641.0,1,1,2,choice,1,1,6,4.0,3,3,0,0
847,1021,w5e13b84,Blue,0.0,3234.0,1,2,2,choice,1,1,-7,-2.0,3,3,0,0
848,1022,w5e13b84,Green,0.0,1245.0,0,3,2,choice,3,2,5,3.0,3,3,2,2
849,1023,w5e13b84,Scene,1.0,399.0,0,4,2,choice,3,1,-2,10.0,3,3,1,1
850,1024,w5e13b84,Yellow,1.0,1341.0,1,5,2,choice,2,2,2,10.0,3,3,1,1
851,1025,w5e13b84,Food,1.0,1211.0,0,6,2,choice,2,2,-4,-3.0,3,3,2,2
852,1026,w5e13b84,Food,1.0,2772.0,0,1,3,choice,1,0,-5,5.0,3,3,0,0
853,1027,w5e13b84,Blue,0.0,684.0,1,2,3,choice,2,2,-7,-7.0,3,3,2,2
854,1028,w5e13b84,Animal,1.0,1067.0,1,3,3,choice,3,2,1,3.0,3,3,2,2
855,1029,w5e13b84,Object,1.0,865.0,0,4,3,choice,2,2,-2,-16.0,3,3,1,1
856,1030,w5e13b84,Yellow,1.0,1815.0,0,5,3,choice,3,2,-2,2.0,3,3,1,1
857,1031,w5e13b84,Red,1.0,1740.0,1,6,3,choice,1,1,3,-3.0,3,3,0,0
858,1032,w5e13b84,Scene,1.0,5069.0,1,1,4,choice,1,1,5,-7.0,4,4,1,1
859,1033,w5e13b84,Object,1.0,1843.0,0,2,4,choice,3,2,-1,17.0,4,4,1,1
860,1034,w5e13b84,Green,0.0,3065.0,1,3,4,choice,1,0,-3,6.0,4,4,0,0
861,1035,w5e13b84,Red,0.0,1420.0,0,4,4,choice,3,2,2,-12.0,4,4,2,2
862,1036,w5e13b84,Yellow,1.0,649.0,0,5,4,choice,2,2,-2,11.0,4,4,2,2
863,1037,w5e13b84,Animal,1.0,1310.0,0,6,4,choice,2,2,-7,-5.0,4,4,2,2
864,1038,w5e13b84,Blue,1.0,4629.0,1,1,5,choice,2,1,4,7.0,1,1,0,0
865,1039,w5e13b84,Scene,0.0,4144.0,1,2,5,choice,3,2,-1,14.0,1,1,1,1
866,1040,w5e13b84,Object,1.0,1848.0,1,3,5,choice,1,2,7,-4.0,1,1,0,0
867,1041,w5e13b84,Red,0.0,2230.0,1,4,5,choice,3,2,-1,-15.0,1,1,0,0
868,1042,w5e13b84,Food,1.0,2501.0,1,5,5,choice,2,2,1,-9.0,1,1,0,0
869,1043,w5e13b84,Green,0.0,1606.0,0,6,5,choice,1,2,4,9.0,1,1,1,1
870,1044,wf1704eb,Blue,1.0,2009.0,0,1,1,choice,2,1,-5,9.0,3,3,1,1
871,1045,wf1704eb,Scene,0.0,2287.0,1,2,1,choice,1,3,-7,4.0,3,3,0,1
872,1046,wf1704eb,Green,0.0,2704.0,1,3,1,choice,1,1,-6,-7.0,3,3,1,2
873,1047,wf1704eb,Food,1.0,2049.0,1,4,1,choice,3,1,2,0.0,3,3,3,3
874,1048,wf1704eb,Yellow,1.0,836.0,1,5,1,choice,3,1,2,5.0,3,3,1,1
875,1049,wf1704eb,Object,1.0,1500.0,0,6,1,choice,2,1,-4,3.0,3,3,0,1
876,1050,wf1704eb,Food,1.0,4245.0,0,1,2,choice,2,1,-4,-6.0,6,6,2,2
877,1051,wf1704eb,Animal,0.0,3436.0,0,2,2,choice,1,1,3,-7.0,6,6,1,1
878,1052,wf1704eb,Scene,0.0,4637.0,1,3,2,choice,3,1,-1,-1.0,6,6,3,3
879,1053,wf1704eb,Green,0.0,2683.0,1,4,2,choice,1,1,-7,-7.0,6,6,1,1
880,1054,wf1704eb,Red,1.0,1561.0,1,5,2,choice,2,1,3,0.0,6,6,2,2
881,1055,wf1704eb,Blue,0.0,2286.0,0,6,2,choice,3,1,2,-7.0,6,6,3,3
882,1056,wf1704eb,Object,1.0,4534.0,1,1,3,choice,2,1,2,-2.0,3,3,0,0
883,1057,wf1704eb,Animal,1.0,2700.0,1,2,3,choice,1,1,2,2.0,3,3,1,1
884,1058,wf1704eb,Red,0.0,6532.0,0,3,3,choice,3,1,1,-11.0,3,3,2,3
885,1059,wf1704eb,Yellow,0.0,2108.0,1,4,3,choice,1,1,-8,2.0,3,3,0,0
886,1060,wf1704eb,Green,1.0,2049.0,1,5,3,choice,2,1,5,13.0,3,3,1,2
887,1061,wf1704eb,Scene,1.0,1044.0,0,6,3,choice,3,2,-6,4.0,3,3,2,2
888,1062,wf1704eb,Red,1.0,5750.0,1,1,4,choice,1,1,9,7.0,4,4,1,1
889,1063,wf1704eb,Blue,0.0,4539.0,1,2,4,choice,3,1,-2,13.0,4,4,2,2
890,1064,wf1704eb,Object,0.0,3860.0,1,3,4,choice,3,1,-3,-5.0,4,4,1,1
891,1065,wf1704eb,Yellow,1.0,3367.0,0,4,4,choice,2,1,-5,-8.0,4,4,1,2
892,1066,wf1704eb,Animal,1.0,1647.0,0,5,4,choice,2,1,-2,10.0,4,4,2,2
893,1067,wf1704eb,Scene,1.0,2734.0,1,6,4,choice,1,1,7,7.0,4,4,1,2
894,1068,wf1704eb,Green,0.0,6783.0,1,1,5,choice,3,1,-2,-5.0,6,6,3,3
895,1069,wf1704eb,Animal,0.0,4608.0,1,2,5,choice,3,1,-1,-1.0,6,6,3,3
896,1070,wf1704eb,Food,1.0,1132.0,0,3,5,choice,2,1,-4,-4.0,6,6,2,2
897,1071,wf1704eb,Object,1.0,6501.0,1,4,5,choice,1,1,7,4.0,6,6,1,1
898,1072,wf1704eb,Red,,,0,5,5,choice,1,1,9,9.0,6,6,1,1
899,1073,wf1704eb,Yellow,1.0,1816.0,0,6,5,choice,2,1,-5,-5.0,6,6,2,2
900,1074,we869265,Scene,,,0,1,1,choice,1,1,6,6.0,4,4,1,1
901,1075,we869265,Blue,1.0,4048.0,0,2,1,choice,1,4,-3,-3.0,4,4,1,1
902,1076,we869265,Animal,0.0,2322.0,1,3,1,choice,3,1,-1,-1.0,4,4,2,2
903,1077,we869265,Food,0.0,2983.0,0,4,1,choice,2,1,1,2.0,4,4,1,1
904,1078,we869265,Yellow,1.0,2649.0,1,5,1,choice,2,2,8,8.0,4,4,0,0
905,1079,we869265,Red,,,0,6,1,choice,3,3,1,2.0,4,4,3,3
906,1080,we869265,Yellow,1.0,2254.0,1,1,2,choice,2,4,1,1.0,6,6,2,2
907,1081,we869265,Green,0.0,4203.0,0,2,2,choice,3,4,1,1.0,6,6,3,3
908,1082,we869265,Red,,,0,3,2,choice,1,2,-9,-9.0,6,6,1,1
909,1083,we869265,Scene,1.0,5227.0,1,4,2,choice,3,3,3,3.0,6,6,3,3
910,1084,we869265,Object,,,0,5,2,choice,2,3,-2,-2.0,6,6,2,2
911,1085,we869265,Animal,1.0,2795.0,0,6,2,choice,1,1,-8,-8.0,6,6,1,1
912,1086,we869265,Food,0.0,6501.0,1,1,3,choice,1,1,-6,-6.0,4,4,1,1
913,1087,we869265,Green,1.0,6298.0,0,2,3,choice,3,1,-5,-4.0,4,4,2,2
914,1088,we869265,Blue,,,0,3,3,choice,2,2,2,2.0,4,4,1,1
915,1089,we869265,Scene,1.0,3618.0,1,4,3,choice,2,1,8,-1.0,4,4,1,1
916,1090,we869265,Object,0.0,2276.0,0,5,3,choice,3,2,2,12.0,4,4,2,2
917,1091,we869265,Yellow,1.0,2419.0,1,6,3,choice,1,1,7,7.0,4,4,1,1
918,1092,we869265,Object,0.0,3674.0,1,1,4,choice,2,2,-2,-2.0,6,6,2,2
919,1093,we869265,Green,,,0,2,4,choice,1,1,-9,-9.0,6,6,1,1
920,1094,we869265,Blue,1.0,2490.0,1,3,4,choice,3,3,1,1.0,6,6,3,3
921,1095,we869265,Food,1.0,4686.0,0,4,4,choice,1,1,-8,-8.0,6,6,1,1
922,1096,we869265,Red,1.0,3116.0,1,5,4,choice,2,2,2,2.0,6,6,2,2
923,1097,we869265,Animal,0.0,3183.0,0,6,4,choice,3,2,4,4.0,6,6,3,3
924,1098,we869265,Red,1.0,2787.0,1,1,5,choice,1,1,3,3.0,6,6,1,1
925,1099,we869265,Blue,1.0,3385.0,1,2,5,choice,2,2,2,2.0,6,6,2,2
926,1100,we869265,Yellow,1.0,2357.0,0,3,5,choice,3,3,-1,-1.0,6,6,3,3
927,1101,we869265,Food,1.0,3636.0,1,4,5,choice,3,2,1,1.0,6,6,3,3
928,1102,we869265,Scene,1.0,2264.0,1,5,5,choice,2,2,7,7.0,6,6,2,2
929,1103,we869265,Animal,0.0,4309.0,1,6,5,choice,1,1,-4,-4.0,6,6,1,1
930,1128,we0078b2,Animal,0.0,2509.0,1,1,1,choice,3,2,-4,-7.0,4,4,2,2
931,1129,we0078b2,Object,0.0,5812.0,0,2,1,choice,1,0,8,0.0,4,4,0,1
932,1130,we0078b2,Green,1.0,2111.0,1,3,1,choice,1,2,9,0.0,4,4,1,1
933,1131,we0078b2,Scene,1.0,2371.0,0,4,1,choice,2,2,-2,0.0,4,4,2,2
934,1132,we0078b2,Yellow,0.0,4285.0,1,5,1,choice,2,1,-3,0.0,4,4,1,1
935,1133,we0078b2,Blue,0.0,1303.0,1,6,1,choice,3,3,-4,-7.0,4,4,2,2
936,1134,we0078b2,Red,1.0,4383.0,0,1,2,choice,3,2,-2,-8.0,5,5,2,2
937,1135,we0078b2,Green,0.0,3110.0,1,2,2,choice,2,2,-2,-8.0,5,5,2,2
938,1136,we0078b2,Yellow,0.0,6347.0,0,3,2,choice,1,1,3,-3.0,5,5,1,2
939,1137,we0078b2,Animal,1.0,3204.0,0,4,2,choice,1,2,-4,-3.0,5,5,1,2
940,1138,we0078b2,Object,0.0,4873.0,0,5,2,choice,3,1,2,-11.0,5,5,3,3
941,1139,we0078b2,Food,1.0,4688.0,1,6,2,choice,2,1,1,-5.0,5,5,1,1
942,1140,we0078b2,Animal,0.0,4321.0,1,1,3,choice,1,1,-4,-3.0,5,5,1,1
943,1141,we0078b2,Scene,0.0,5553.0,0,2,3,choice,3,3,1,-9.0,5,5,3,3
944,1142,we0078b2,Yellow,0.0,6942.0,0,3,3,choice,2,2,7,-1.0,5,5,2,2
945,1143,we0078b2,Green,1.0,3715.0,1,4,3,choice,3,3,1,-3.0,5,5,2,2
946,1144,we0078b2,Red,0.0,2481.0,1,5,3,choice,1,1,-9,-9.0,5,5,1,1
947,1145,we0078b2,Object,0.0,4028.0,0,6,3,choice,2,1,2,-1.0,5,5,1,1
948,1146,we0078b2,Blue,0.0,2579.0,1,1,4,choice,2,1,-6,-4.0,4,4,1,1
949,1147,we0078b2,Food,,,0,2,4,choice,3,2,-3,-9.0,4,4,1,1
950,1148,we0078b2,Object,0.0,2860.0,1,3,4,choice,2,2,-3,0.0,4,4,2,2
951,1149,we0078b2,Green,1.0,3414.0,1,4,4,choice,1,1,9,0.0,4,4,1,1
952,1150,we0078b2,Red,1.0,5011.0,0,5,4,choice,3,2,-1,-5.0,4,4,2,2
953,1151,we0078b2,Scene,1.0,3849.0,1,6,4,choice,1,1,8,0.0,4,4,1,1
954,1152,we0078b2,Food,0.0,3037.0,0,1,5,choice,2,2,7,-1.0,5,5,1,1
955,1153,we0078b2,Yellow,0.0,4940.0,0,2,5,choice,2,2,1,-1.0,5,5,1,1
956,1154,we0078b2,Red,0.0,4375.0,0,3,5,choice,1,1,3,-5.0,5,5,1,1
957,1155,we0078b2,Animal,1.0,3066.0,1,4,5,choice,3,2,1,-9.0,5,5,3,3
958,1156,we0078b2,Scene,0.0,3846.0,1,5,5,choice,1,1,-7,-9.0,5,5,1,1
959,1157,we0078b2,Blue,0.0,1850.0,1,6,5,choice,3,2,-3,-13.0,5,5,3,3
960,1158,w44a1a9f,Object,1.0,3514.0,1,1,1,choice,2,4,2,-7.0,4,4,1,1
961,1159,w44a1a9f,Animal,1.0,2090.0,1,2,1,choice,1,2,3,0.0,4,4,1,1
962,1160,w44a1a9f,Red,0.0,3485.0,1,3,1,choice,1,2,-4,0.0,4,4,0,0
963,1161,w44a1a9f,Yellow,0.0,879.0,0,4,1,choice,3,3,1,-10.0,4,4,3,3
964,1162,w44a1a9f,Scene,0.0,5534.0,1,5,1,choice,3,13,-1,-6.0,4,4,2,2
965,1163,w44a1a9f,Green,1.0,1335.0,1,6,1,choice,2,2,7,-3.0,4,4,1,1
966,1164,w44a1a9f,Food,1.0,2961.0,1,1,3,choice,3,1,4,-10.0,1,1,1,1
967,1165,w44a1a9f,Blue,1.0,1993.0,0,2,3,choice,2,1,-5,0.0,1,1,0,0
968,1166,w44a1a9f,Yellow,0.0,211.0,0,3,3,choice,1,1,5,-7.0,1,1,1,1
969,1167,w44a1a9f,Red,1.0,370.0,0,4,3,choice,3,1,-1,-8.0,1,1,0,1
970,1168,w44a1a9f,Animal,1.0,789.0,0,5,3,choice,1,1,-4,0.0,1,1,0,0
971,1169,w44a1a9f,Scene,0.0,854.0,1,6,3,choice,2,2,-1,-5.0,1,1,0,0
972,1170,w44a1a9f,Animal,1.0,3507.0,1,1,4,choice,3,1,2,0.0,2,2,1,1
973,1171,w44a1a9f,Food,1.0,1398.0,1,2,4,choice,2,1,2,0.0,2,2,1,1
974,1172,w44a1a9f,Yellow,1.0,4147.0,0,3,4,choice,1,1,-6,0.0,2,2,0,1
975,1173,w44a1a9f,Green,0.0,3092.0,0,4,4,choice,2,1,1,0.0,2,2,1,1
976,1174,w44a1a9f,Object,0.0,1145.0,1,5,4,choice,1,2,-7,-9.0,2,2,0,1
977,1175,w44a1a9f,Red,1.0,2029.0,1,6,4,choice,3,1,2,-9.0,2,2,1,1
978,1176,w44a1a9f,Object,,,0,1,5,choice,1,3,8,0.0,1,1,0,0
979,1177,w44a1a9f,Yellow,1.0,2981.0,0,2,5,choice,3,2,-1,0.0,1,1,0,0
980,1178,w44a1a9f,Scene,1.0,1009.0,1,3,5,choice,2,2,6,0.0,1,1,1,1
981,1179,w44a1a9f,Food,1.0,2861.0,0,4,5,choice,3,2,-4,0.0,1,1,0,0
982,1180,w44a1a9f,Green,1.0,793.0,1,5,5,choice,1,1,7,0.0,1,1,0,0
983,1181,w44a1a9f,Blue,1.0,1858.0,1,6,5,choice,2,2,4,0.0,1,1,1,1
984,1182,w6e46ddf,Scene,1.0,2658.0,0,1,1,choice,3,3,-3,-6.0,4,4,2,2
985,1183,w6e46ddf,Animal,0.0,2819.0,0,2,1,choice,1,4,3,0.0,4,4,1,2
986,1184,w6e46ddf,Object,1.0,1036.0,0,3,1,choice,2,4,-7,-6.0,4,4,1,1
987,1185,w6e46ddf,Blue,1.0,1481.0,0,4,1,choice,1,2,-5,5.0,4,4,0,0
988,1186,w6e46ddf,Yellow,1.0,698.0,1,5,1,choice,3,3,1,-15.0,4,4,2,3
989,1187,w6e46ddf,Red,0.0,972.0,1,6,1,choice,2,1,-3,-2.0,4,4,2,3
990,1188,w6e46ddf,Green,1.0,1692.0,0,1,2,choice,2,3,-5,-1.0,4,4,2,2
991,1189,w6e46ddf,Scene,0.0,1007.0,1,2,2,choice,1,3,-6,2.0,4,4,1,2
992,1190,w6e46ddf,Object,1.0,739.0,0,3,2,choice,2,3,-2,-3.0,4,4,1,2
993,1191,w6e46ddf,Red,1.0,472.0,1,4,2,choice,1,1,2,-6.0,4,4,1,3
994,1192,w6e46ddf,Animal,1.0,572.0,1,5,2,choice,3,3,1,4.0,4,4,2,2
995,1193,w6e46ddf,Blue,1.0,1441.0,0,6,2,choice,3,2,-4,10.0,4,4,1,1
996,1194,w6e46ddf,Food,1.0,1068.0,1,1,3,choice,2,2,3,-2.0,4,4,2,2
997,1195,w6e46ddf,Yellow,1.0,640.0,0,2,3,choice,2,0,-1,-2.0,4,4,2,2
998,1196,w6e46ddf,Object,0.0,1123.0,1,3,3,choice,1,2,-3,-9.0,4,4,0,1
999,1197,w6e46ddf,Animal,1.0,619.0,1,4,3,choice,3,2,4,-1.0,4,4,2,3
1000,1198,w6e46ddf,Red,1.0,794.0,1,5,3,choice,1,0,6,2.0,4,4,0,0
1001,1199,w6e46ddf,Blue,1.0,832.0,0,6,3,choice,3,1,-1,-12.0,4,4,2,2
1002,1200,w6e46ddf,Yellow,1.0,1217.0,1,1,4,choice,2,2,2,-10.0,5,5,2,3
1003,1201,w6e46ddf,Blue,1.0,1802.0,0,2,4,choice,1,1,-8,-7.0,5,5,1,1
1004,1202,w6e46ddf,Green,0.0,1841.0,0,3,4,choice,3,1,1,11.0,5,5,2,2
1005,1203,w6e46ddf,Scene,1.0,3459.0,0,4,4,choice,1,1,-6,3.0,5,5,1,1
1006,1204,w6e46ddf,Food,1.0,4201.0,1,5,4,choice,3,1,3,-6.0,5,5,2,2
1007,1205,w6e46ddf,Object,0.0,6299.0,1,6,4,choice,2,2,-2,-3.0,5,5,2,2
1008,1206,w6e46ddf,Yellow,0.0,1900.0,1,1,5,choice,1,1,-4,-2.0,3,3,0,1
1009,1207,w6e46ddf,Scene,1.0,2340.0,0,2,5,choice,3,1,-2,-5.0,3,3,1,1
1010,1208,w6e46ddf,Green,1.0,1708.0,1,3,5,choice,3,0,1,0.0,3,3,2,3
1011,1209,w6e46ddf,Food,1.0,1487.0,1,4,5,choice,2,2,1,-3.0,3,3,2,3
1012,1210,w6e46ddf,Red,0.0,1486.0,0,5,5,choice,2,1,4,-2.0,3,3,1,2
1013,1211,w6e46ddf,Animal,1.0,1826.0,1,6,5,choice,1,1,2,4.0,3,3,0,1
1014,1212,w977f12b,Scene,1.0,2284.0,0,1,1,choice,3,2,-1,0.0,5,5,2,2
1015,1213,w977f12b,Yellow,0.0,5524.0,1,2,1,choice,1,1,-2,0.0,5,5,0,0
1016,1214,w977f12b,Animal,,,0,3,1,choice,1,2,4,-4.0,5,5,1,1
1017,1215,w977f12b,Object,0.0,1567.0,1,4,1,choice,2,2,-5,-5.0,5,5,2,2
1018,1216,w977f12b,Red,0.0,2827.0,0,5,1,choice,3,2,2,-6.0,5,5,3,3
1019,1217,w977f12b,Green,1.0,6743.0,0,6,1,choice,2,2,-2,-3.0,5,5,2,2
1020,1218,w977f12b,Red,0.0,5477.0,1,1,2,choice,1,0,-8,-3.0,5,5,1,1
1021,1219,w977f12b,Animal,1.0,7270.0,1,2,2,choice,2,2,3,5.0,5,5,1,1
1022,1220,w977f12b,Food,0.0,4204.0,0,3,2,choice,3,2,1,-8.0,5,5,3,3
1023,1221,w977f12b,Object,0.0,7147.0,1,4,2,choice,1,1,-9,-9.0,5,5,1,1
1024,1222,w977f12b,Green,1.0,1180.0,1,5,2,choice,2,2,1,3.0,5,5,2,2
1025,1223,w977f12b,Blue,0.0,4420.0,0,6,2,choice,3,2,2,-12.0,5,5,2,2
1026,1224,w977f12b,Red,1.0,2354.0,1,1,3,choice,3,3,4,8.0,6,6,3,3
1027,1225,w977f12b,Scene,0.0,4766.0,1,2,3,choice,2,2,-5,-1.0,6,6,2,2
1028,1226,w977f12b,Blue,0.0,5828.0,0,3,3,choice,2,2,1,0.0,6,6,2,2
1029,1227,w977f12b,Food,1.0,7227.0,0,4,3,choice,3,3,-1,-2.0,6,6,3,3
1030,1228,w977f12b,Animal,1.0,5676.0,1,5,3,choice,1,1,5,5.0,6,6,1,1
1031,1229,w977f12b,Yellow,0.0,4981.0,1,6,3,choice,1,1,-6,-6.0,6,6,1,1
1032,1230,w977f12b,Object,,,0,1,4,choice,3,2,3,6.0,5,5,2,2
1033,1231,w977f12b,Yellow,0.0,2040.0,0,2,4,choice,3,3,4,-6.0,5,5,3,3
1034,1232,w977f12b,Food,1.0,3356.0,1,3,4,choice,2,2,5,-3.0,5,5,2,2
1035,1233,w977f12b,Red,0.0,4233.0,1,4,4,choice,1,0,-6,-1.0,5,5,0,0
1036,1234,w977f12b,Green,1.0,1179.0,1,5,4,choice,2,2,1,1.0,5,5,2,2
1037,1235,w977f12b,Scene,0.0,1570.0,1,6,4,choice,1,1,-9,-9.0,5,5,1,1
1038,1236,w977f12b,Object,0.0,2654.0,0,1,5,choice,2,2,3,-13.0,5,5,1,1
1039,1237,w977f12b,Blue,0.0,2831.0,1,2,5,choice,3,3,-2,-21.0,5,5,2,2
1040,1238,w977f12b,Yellow,1.0,4117.0,0,3,5,choice,2,2,-2,0.0,5,5,2,2
1041,1239,w977f12b,Animal,1.0,2503.0,1,4,5,choice,3,3,4,1.0,5,5,3,3
1042,1240,w977f12b,Scene,0.0,4100.0,1,5,5,choice,1,2,-6,-3.0,5,5,1,1
1043,1241,w977f12b,Green,0.0,3771.0,0,6,5,choice,1,1,5,6.0,5,5,1,1
1044,1242,wea7f2f9,Green,,,0,1,1,choice,3,4,1,8.0,4,4,2,2
1045,1243,wea7f2f9,Yellow,1.0,3755.0,1,2,1,choice,2,1,1,4.0,4,4,1,1
1046,1244,wea7f2f9,Animal,0.0,5087.0,1,3,1,choice,3,1,-2,-1.0,4,4,3,3
1047,1245,wea7f2f9,Scene,1.0,3180.0,1,4,1,choice,1,1,2,2.0,4,4,1,1
1048,1246,wea7f2f9,Object,1.0,4318.0,0,5,1,choice,2,1,-4,5.0,4,4,0,2
1049,1247,wea7f2f9,Red,0.0,2234.0,1,6,1,choice,1,2,-6,-6.0,4,4,1,2
1050,1248,wea7f2f9,Yellow,0.0,2712.0,0,1,2,choice,2,1,2,8.0,4,4,1,2
1051,1249,wea7f2f9,Object,1.0,3700.0,1,2,2,choice,1,1,8,6.0,4,4,1,2
1052,1250,wea7f2f9,Food,0.0,3024.0,1,3,2,choice,3,1,-1,11.0,4,4,1,1
1053,1251,wea7f2f9,Blue,1.0,3601.0,1,4,2,choice,1,1,5,3.0,4,4,1,2
1054,1252,wea7f2f9,Scene,1.0,4070.0,0,5,2,choice,2,2,-1,-1.0,4,4,2,3
1055,1253,wea7f2f9,Red,0.0,2678.0,1,6,2,choice,3,2,-1,5.0,4,4,2,2
1056,1254,wea7f2f9,Scene,0.0,2428.0,1,1,3,choice,1,1,-9,5.0,4,4,1,2
1057,1255,wea7f2f9,Object,1.0,2151.0,1,2,3,choice,3,1,3,0.0,4,4,2,2
1058,1256,wea7f2f9,Red,0.0,1565.0,1,3,3,choice,1,1,-7,-6.0,4,4,1,3
1059,1257,wea7f2f9,Animal,1.0,3656.0,1,4,3,choice,2,1,6,3.0,4,4,1,1
1060,1258,wea7f2f9,Yellow,0.0,3023.0,0,5,3,choice,2,1,4,-1.0,4,4,1,1
1061,1259,wea7f2f9,Blue,1.0,1902.0,1,6,3,choice,3,1,3,15.0,4,4,2,2
1062,1260,wea7f2f9,Blue,0.0,2380.0,1,1,4,choice,1,1,-7,-5.0,5,5,1,2
1063,1261,wea7f2f9,Animal,1.0,3244.0,0,2,4,choice,1,1,-9,-3.0,5,5,1,2
1064,1262,wea7f2f9,Scene,1.0,2517.0,1,3,4,choice,3,1,2,7.0,5,5,2,2
1065,1263,wea7f2f9,Green,1.0,3001.0,1,4,4,choice,3,1,2,10.0,5,5,3,3
1066,1264,wea7f2f9,Food,0.0,2967.0,0,5,4,choice,2,1,7,9.0,5,5,2,2
1067,1265,wea7f2f9,Yellow,1.0,2112.0,1,6,4,choice,2,1,5,8.0,5,5,1,1
1068,1266,wea7f2f9,Green,0.0,2968.0,1,1,5,choice,1,1,-5,2.0,2,2,0,2
1069,1267,wea7f2f9,Food,0.0,3652.0,1,2,5,choice,3,1,-4,0.0,2,2,0,0
1070,1268,wea7f2f9,Blue,0.0,2004.0,0,3,5,choice,3,1,3,-19.0,2,2,1,2
1071,1269,wea7f2f9,Object,1.0,1666.0,1,4,5,choice,1,1,6,-7.0,2,2,0,0
1072,1270,wea7f2f9,Red,1.0,2657.0,1,5,5,choice,2,1,7,8.0,2,2,1,1
1073,1271,wea7f2f9,Animal,0.0,2218.0,0,6,5,choice,2,1,3,-2.0,2,2,2,4
1074,1272,wcbb66d9,Yellow,1.0,2365.0,1,1,1,choice,3,1,3,3.0,1,1,1,1
1075,1273,wcbb66d9,Food,0.0,1905.0,1,2,1,choice,2,3,-2,-2.0,1,1,1,1
1076,1274,wcbb66d9,Blue,1.0,2709.0,0,3,1,choice,1,2,-3,-3.0,1,1,0,1
1077,1275,wcbb66d9,Green,0.0,971.0,0,4,1,choice,2,2,3,0.0,1,1,0,0
1078,1276,wcbb66d9,Scene,0.0,1352.0,0,5,1,choice,1,2,6,3.0,1,1,0,0
1079,1277,wcbb66d9,Object,0.0,1919.0,1,6,1,choice,3,2,-1,-1.0,1,1,0,1
1080,1278,wcbb66d9,Object,,,0,1,2,choice,3,2,-3,4.0,4,4,2,2
1081,1279,wcbb66d9,Red,1.0,2668.0,1,2,2,choice,3,2,1,0.0,4,4,2,2
1082,1280,wcbb66d9,Animal,1.0,4380.0,1,3,2,choice,2,2,3,-2.0,4,4,1,1
1083,1281,wcbb66d9,Green,0.0,1723.0,1,4,2,choice,1,1,-7,-7.0,4,4,1,2
1084,1282,wcbb66d9,Food,0.0,3936.0,0,5,2,choice,1,3,2,2.0,4,4,1,1
1085,1283,wcbb66d9,Yellow,1.0,1144.0,1,6,2,choice,2,2,8,11.0,4,4,1,1
1086,1284,wcbb66d9,Green,1.0,2940.0,1,1,3,choice,2,2,6,3.0,6,6,2,2
1087,1285,wcbb66d9,Object,0.0,6524.0,1,2,3,choice,1,1,-4,-2.0,6,6,1,1
1088,1286,wcbb66d9,Animal,1.0,3356.0,1,3,3,choice,3,3,2,-1.0,6,6,3,3
1089,1287,wcbb66d9,Blue,1.0,1346.0,0,4,3,choice,3,2,-3,0.0,6,6,3,3
1090,1288,wcbb66d9,Scene,1.0,1173.0,1,5,3,choice,2,2,8,8.0,6,6,2,2
1091,1289,wcbb66d9,Yellow,1.0,2036.0,1,6,3,choice,1,1,3,2.0,6,6,1,1
1092,1290,wcbb66d9,Scene,0.0,2476.0,1,1,4,choice,3,3,-2,-2.0,5,5,2,2
1093,1291,wcbb66d9,Blue,0.0,1083.0,1,2,4,choice,3,1,-2,-2.0,5,5,3,3
1094,1292,wcbb66d9,Animal,0.0,3497.0,0,3,4,choice,2,2,1,0.0,5,5,2,2
1095,1293,wcbb66d9,Red,1.0,3377.0,1,4,4,choice,1,1,8,4.0,5,5,0,0
1096,1294,wcbb66d9,Green,0.0,3520.0,0,5,4,choice,2,1,2,5.0,5,5,2,2
1097,1295,wcbb66d9,Food,1.0,1015.0,1,6,4,choice,1,1,9,9.0,5,5,1,1
1098,1296,wcbb66d9,Yellow,1.0,4309.0,0,1,5,choice,2,1,-4,-1.0,5,5,1,1
1099,1297,wcbb66d9,Red,1.0,588.0,1,2,5,choice,3,2,5,6.0,5,5,3,3
1100,1298,wcbb66d9,Scene,0.0,3692.0,1,3,5,choice,2,1,-8,-6.0,5,5,1,1
1101,1299,wcbb66d9,Food,0.0,2255.0,1,4,5,choice,3,2,-2,-2.0,5,5,3,3
1102,1300,wcbb66d9,Animal,1.0,2432.0,1,5,5,choice,1,2,8,9.0,5,5,1,2
1103,1301,wcbb66d9,Blue,0.0,2475.0,1,6,5,choice,1,0,-3,-4.0,5,5,1,1
1104,1308,w24cc88c,Blue,1.0,4820.0,1,1,1,choice,2,2,2,2.0,6,6,2,2
1105,1309,w24cc88c,Food,1.0,6173.0,1,2,1,choice,3,3,5,5.0,6,6,3,3
1106,1310,w24cc88c,Green,0.0,3007.0,1,3,1,choice,1,1,-8,-8.0,6,6,1,1
1107,1311,w24cc88c,Yellow,1.0,2235.0,1,4,1,choice,3,2,3,3.0,6,6,3,3
1108,1312,w24cc88c,Scene,0.0,2497.0,0,5,1,choice,2,1,1,1.0,6,6,2,2
1109,1313,w24cc88c,Object,0.0,7070.0,1,6,1,choice,1,1,-9,-9.0,6,6,1,1
1110,1314,w24cc88c,Yellow,,,0,1,2,choice,1,1,-6,-6.0,6,6,1,1
1111,1315,w24cc88c,Green,1.0,3661.0,1,2,2,choice,3,2,3,3.0,6,6,3,3
1112,1316,w24cc88c,Object,1.0,3497.0,0,3,2,choice,2,1,-2,-2.0,6,6,2,2
1113,1317,w24cc88c,Red,1.0,4835.0,1,4,2,choice,2,1,4,4.0,6,6,2,2
1114,1318,w24cc88c,Food,1.0,3701.0,1,5,2,choice,1,1,4,4.0,6,6,1,1
1115,1319,w24cc88c,Scene,0.0,5088.0,1,6,2,choice,3,3,-1,-1.0,6,6,3,3
1116,1320,w24cc88c,Blue,0.0,4118.0,1,1,3,choice,2,2,-1,-1.0,6,6,2,2
1117,1321,w24cc88c,Animal,0.0,4885.0,1,2,3,choice,1,1,-8,-7.0,6,6,1,1
1118,1322,w24cc88c,Object,0.0,6231.0,0,3,3,choice,2,1,1,3.0,6,6,2,2
1119,1323,w24cc88c,Food,1.0,1588.0,1,4,3,choice,3,3,1,-2.0,6,6,3,3
1120,1324,w24cc88c,Red,0.0,4799.0,1,5,3,choice,1,1,-7,-8.0,6,6,1,1
1121,1325,w24cc88c,Yellow,1.0,2253.0,1,6,3,choice,3,2,2,3.0,6,6,3,3
1122,1326,w24cc88c,Blue,,,0,1,4,choice,2,2,7,10.0,6,6,2,2
1123,1327,w24cc88c,Yellow,,,0,2,4,choice,1,1,-7,-9.0,6,6,1,1
1124,1328,w24cc88c,Scene,1.0,4984.0,1,3,4,choice,2,2,1,0.0,6,6,2,2
1125,1329,w24cc88c,Food,1.0,7062.0,1,4,4,choice,1,1,4,4.0,6,6,1,1
1126,1330,w24cc88c,Red,1.0,4203.0,1,5,4,choice,3,3,1,4.0,6,6,3,3
1127,1331,w24cc88c,Animal,,,0,6,4,choice,3,3,-4,1.0,6,6,3,3
1128,1332,w24cc88c,Red,0.0,4437.0,0,1,5,choice,2,1,1,-12.0,5,5,1,1
1129,1333,w24cc88c,Object,0.0,7137.0,1,2,5,choice,2,1,-4,-16.0,5,5,1,1
1130,1334,w24cc88c,Scene,0.0,5890.0,0,3,5,choice,1,1,8,3.0,5,5,1,1
1131,1335,w24cc88c,Green,0.0,6939.0,0,4,5,choice,3,3,5,-14.0,5,5,3,3
1132,1336,w24cc88c,Animal,1.0,4969.0,0,5,5,choice,3,4,-1,-7.0,5,5,3,4
1133,1337,w24cc88c,Blue,0.0,6165.0,1,6,5,choice,1,1,-3,6.0,5,5,1,1
1134,1338,wed354d9,Yellow,1.0,1436.0,1,1,1,choice,1,4,6,-5.0,2,2,0,1
1135,1339,wed354d9,Red,0.0,671.0,1,2,1,choice,3,2,-2,-23.0,2,2,2,3
1136,1340,wed354d9,Object,0.0,1180.0,1,3,1,choice,2,2,-6,-13.0,2,2,1,1
1137,1341,wed354d9,Scene,0.0,733.0,1,4,1,choice,1,2,-3,-9.0,2,2,1,1
1138,1342,wed354d9,Animal,0.0,657.0,0,5,1,choice,3,2,5,-16.0,2,2,0,0
1139,1343,wed354d9,Blue,0.0,4647.0,1,6,1,choice,2,2,-8,-10.0,2,2,0,0
1140,1344,wed354d9,Object,1.0,1119.0,0,1,2,choice,2,2,-1,-17.0,3,3,0,0
1141,1345,wed354d9,Scene,,,0,2,2,choice,1,3,-6,-8.0,3,3,1,1
1142,1346,wed354d9,Yellow,1.0,6796.0,0,3,2,choice,3,2,-2,-17.0,3,3,2,2
1143,1347,wed354d9,Red,,,0,4,2,choice,1,2,5,-5.0,3,3,1,1
1144,1348,wed354d9,Food,,,0,5,2,choice,3,2,4,-6.0,3,3,2,2
1145,1349,wed354d9,Green,,,0,6,2,choice,2,3,-6,-9.0,3,3,0,1
1146,1350,wed354d9,Yellow,1.0,1976.0,1,1,5,choice,1,1,6,-5.0,3,3,0,2
1147,1351,wed354d9,Food,1.0,5868.0,0,2,5,choice,1,1,-2,-6.0,3,3,1,2
1148,1352,wed354d9,Scene,,,0,3,5,choice,3,1,2,-16.0,3,3,1,2
1149,1353,wed354d9,Blue,,,0,4,5,choice,3,3,-1,-14.0,3,3,2,2
1150,1354,wed354d9,Animal,1.0,5611.0,0,5,5,choice,2,1,-1,-4.0,3,3,1,1
1151,1355,wed354d9,Green,1.0,698.0,0,6,5,choice,2,1,-6,-7.0,3,3,1,1
1152,1356,w0e7fb0a,Food,1.0,5111.0,0,1,1,choice,3,2,-3,8.0,1,1,0,0
1153,1357,w0e7fb0a,Blue,1.0,1701.0,0,2,1,choice,3,3,-1,11.0,1,1,1,1
1154,1358,w0e7fb0a,Animal,0.0,1478.0,0,3,1,choice,1,2,6,-1.0,1,1,1,2
1155,1359,w0e7fb0a,Scene,1.0,1523.0,1,4,1,choice,2,2,6,12.0,1,1,0,1
1156,1360,w0e7fb0a,Yellow,1.0,1229.0,1,5,1,choice,1,3,8,-3.0,1,1,0,0
1157,1361,w0e7fb0a,Green,0.0,1317.0,0,6,1,choice,2,2,2,11.0,1,1,0,1
1158,1362,w0e7fb0a,Animal,1.0,3164.0,1,1,2,choice,1,3,9,2.0,2,2,0,0
1159,1363,w0e7fb0a,Red,0.0,3445.0,1,2,2,choice,3,1,-1,3.0,2,2,0,0
1160,1364,w0e7fb0a,Scene,1.0,4577.0,1,3,2,choice,2,3,3,-8.0,2,2,0,0
1161,1365,w0e7fb0a,Green,0.0,1345.0,0,4,2,choice,1,3,8,9.0,2,2,1,1
1162,1366,w0e7fb0a,Yellow,1.0,2171.0,1,5,2,choice,2,2,1,0.0,2,2,1,1
1163,1367,w0e7fb0a,Food,0.0,3661.0,1,6,2,choice,3,3,-4,18.0,2,2,2,2
1164,1368,w0e7fb0a,Green,0.0,1751.0,1,1,3,choice,2,2,-3,-3.0,3,3,2,2
1165,1369,w0e7fb0a,Yellow,1.0,1689.0,0,2,3,choice,3,2,-1,16.0,3,3,1,2
1166,1370,w0e7fb0a,Animal,0.0,1794.0,1,3,3,choice,3,2,-4,9.0,3,3,1,2
1167,1371,w0e7fb0a,Scene,0.0,2610.0,0,4,3,choice,1,2,8,6.0,3,3,0,1
1168,1372,w0e7fb0a,Object,1.0,2798.0,1,5,3,choice,2,1,1,7.0,3,3,2,2
1169,1373,w0e7fb0a,Blue,0.0,2166.0,0,6,3,choice,1,3,9,9.0,3,3,0,0
1170,1374,w0e7fb0a,Food,0.0,2596.0,1,1,4,choice,1,2,-6,3.0,2,2,0,0
1171,1375,w0e7fb0a,Animal,1.0,3011.0,0,2,4,choice,2,2,-2,14.0,2,2,1,1
1172,1376,w0e7fb0a,Object,1.0,1867.0,1,3,4,choice,3,2,3,14.0,2,2,1,2
1173,1377,w0e7fb0a,Blue,1.0,3133.0,1,4,4,choice,1,2,4,4.0,2,2,1,1
1174,1378,w0e7fb0a,Yellow,1.0,2449.0,0,5,4,choice,2,2,-4,13.0,2,2,1,2
1175,1379,w0e7fb0a,Red,0.0,2052.0,1,6,4,choice,3,1,-5,14.0,2,2,0,0
1176,1380,w0e7fb0a,Red,1.0,1914.0,0,1,5,choice,1,1,-2,-2.0,3,3,1,2
1177,1381,w0e7fb0a,Object,1.0,3424.0,0,2,5,choice,3,2,-1,8.0,3,3,2,2
1178,1382,w0e7fb0a,Scene,0.0,1051.0,1,3,5,choice,2,1,-4,-16.0,3,3,1,1
1179,1383,w0e7fb0a,Green,1.0,2031.0,0,4,5,choice,2,1,-2,-2.0,3,3,1,1
1180,1384,w0e7fb0a,Food,0.0,1364.0,0,5,5,choice,1,1,3,5.0,3,3,0,1
1181,1385,w0e7fb0a,Blue,0.0,915.0,0,6,5,choice,3,2,2,1.0,3,3,1,1
1182,1386,wa577349,Red,0.0,3465.0,1,1,1,choice,1,3,-4,-3.0,4,4,0,0
1183,1387,wa577349,Green,1.0,1021.0,1,2,1,choice,3,3,1,13.0,4,4,3,3
1184,1388,wa577349,Yellow,0.0,4782.0,0,3,1,choice,2,2,8,-8.0,4,4,1,2
1185,1389,wa577349,Scene,1.0,2599.0,1,4,1,choice,1,3,7,9.0,4,4,1,2
1186,1390,wa577349,Food,1.0,814.0,1,5,1,choice,2,2,1,6.0,4,4,2,2
1187,1391,wa577349,Animal,0.0,2348.0,1,6,1,choice,3,3,-3,-13.0,4,4,1,1
1188,1392,wa577349,Blue,1.0,1808.0,1,1,2,choice,1,1,7,7.0,4,4,0,0
1189,1393,wa577349,Scene,1.0,2255.0,1,2,2,choice,1,1,8,9.0,4,4,0,0
1190,1394,wa577349,Animal,0.0,4744.0,1,3,2,choice,3,3,-2,1.0,4,4,2,2
1191,1395,wa577349,Yellow,1.0,1954.0,1,4,2,choice,2,1,6,5.0,4,4,2,2
1192,1396,wa577349,Red,0.0,3685.0,1,5,2,choice,3,2,-2,1.0,4,4,2,2
1193,1397,wa577349,Object,1.0,4140.0,1,6,2,choice,2,1,5,3.0,4,4,2,2
1194,1398,wa577349,Yellow,1.0,1787.0,0,1,3,choice,2,3,-3,4.0,5,5,2,2
1195,1399,wa577349,Green,1.0,1506.0,1,2,3,choice,1,1,7,7.0,5,5,1,1
1196,1400,wa577349,Food,0.0,2203.0,0,3,3,choice,1,1,9,5.0,5,5,0,0
1197,1401,wa577349,Blue,0.0,1130.0,1,4,3,choice,3,2,-2,-3.0,5,5,2,2
1198,1402,wa577349,Object,1.0,1618.0,0,5,3,choice,3,2,-2,0.0,5,5,3,3
1199,1403,wa577349,Scene,0.0,1549.0,1,6,3,choice,2,2,-5,3.0,5,5,2,2
1200,1404,wa577349,Animal,0.0,6294.0,1,1,4,choice,2,2,-7,0.0,3,3,1,2
1201,1405,wa577349,Blue,0.0,1904.0,1,2,4,choice,3,2,-4,-1.0,3,3,2,2
1202,1406,wa577349,Green,1.0,1741.0,0,3,4,choice,2,1,-2,-10.0,3,3,1,1
1203,1407,wa577349,Food,1.0,1319.0,0,4,4,choice,3,1,-2,-4.0,3,3,1,1
1204,1408,wa577349,Object,1.0,1696.0,1,5,4,choice,1,1,9,-3.0,3,3,1,1
1205,1409,wa577349,Red,1.0,2122.0,1,6,4,choice,1,1,6,4.0,3,3,0,1
1206,1410,wa577349,Blue,1.0,3659.0,1,1,5,choice,1,1,4,4.0,5,5,1,1
1207,1411,wa577349,Scene,1.0,2050.0,1,2,5,choice,3,2,3,14.0,5,5,3,3
1208,1412,wa577349,Object,0.0,2287.0,1,3,5,choice,1,0,-3,-3.0,5,5,0,0
1209,1413,wa577349,Yellow,0.0,2377.0,1,4,5,choice,2,1,-6,2.0,5,5,2,2
1210,1414,wa577349,Red,0.0,3340.0,1,5,5,choice,3,2,-2,-2.0,5,5,2,2
1211,1415,wa577349,Food,0.0,3428.0,1,6,5,choice,2,2,-4,-7.0,5,5,2,2
1212,1416,w001d343,Yellow,0.0,6018.0,0,1,1,choice,2,1,2,12.0,5,5,1,1
1213,1417,w001d343,Animal,1.0,5596.0,1,2,1,choice,2,1,1,3.0,5,5,1,1
1214,1418,w001d343,Food,1.0,5210.0,0,3,1,choice,3,3,-2,12.0,5,5,3,3
1215,1419,w001d343,Blue,1.0,5179.0,0,4,1,choice,3,2,-2,0.0,5,5,3,3
1216,1420,w001d343,Green,1.0,3509.0,1,5,1,choice,1,1,7,8.0,5,5,1,1
1217,1421,w001d343,Scene,1.0,3263.0,1,6,1,choice,1,1,8,5.0,5,5,1,1
1218,1422,w001d343,Yellow,1.0,3363.0,0,1,2,choice,3,2,-2,19.0,5,5,3,3
1219,1423,w001d343,Scene,,,0,2,2,choice,3,3,-5,5.0,5,5,2,2
1220,1424,w001d343,Blue,0.0,3103.0,1,3,2,choice,2,2,-6,-12.0,5,5,2,2
1221,1425,w001d343,Red,1.0,2724.0,1,4,2,choice,1,1,9,4.0,5,5,0,0
1222,1426,w001d343,Object,1.0,3067.0,1,5,2,choice,1,1,7,7.0,5,5,1,1
1223,1427,w001d343,Animal,1.0,3502.0,0,6,2,choice,2,2,-1,-1.0,5,5,2,2
1224,1428,w001d343,Blue,0.0,3248.0,1,1,3,choice,1,1,-8,4.0,4,4,1,1
1225,1429,w001d343,Green,1.0,1482.0,1,2,3,choice,3,3,1,2.0,4,4,3,3
1226,1430,w001d343,Red,1.0,2345.0,0,3,3,choice,2,1,-1,1.0,4,4,0,0
1227,1431,w001d343,Scene,1.0,2858.0,0,4,3,choice,1,1,-9,-9.0,4,4,1,1
1228,1432,w001d343,Object,1.0,1790.0,1,5,3,choice,3,2,3,8.0,4,4,2,2
1229,1433,w001d343,Animal,0.0,3159.0,1,6,3,choice,2,2,-2,8.0,4,4,1,1
1230,1434,w001d343,Food,1.0,3325.0,1,1,4,choice,2,2,3,9.0,4,4,2,2
1231,1435,w001d343,Yellow,1.0,1917.0,1,2,4,choice,3,2,2,-2.0,4,4,1,1
1232,1436,w001d343,Scene,1.0,2870.0,0,3,4,choice,3,3,-4,-11.0,4,4,2,2
1233,1437,w001d343,Object,1.0,3370.0,1,4,4,choice,1,2,3,3.0,4,4,0,0
1234,1438,w001d343,Green,0.0,2477.0,1,5,4,choice,1,1,-5,-9.0,4,4,1,1
1235,1439,w001d343,Red,1.0,1216.0,1,6,4,choice,2,4,5,12.0,4,4,2,3
1236,1440,w001d343,Object,1.0,3744.0,1,1,5,choice,3,3,3,-7.0,4,4,2,2
1237,1441,w001d343,Green,1.0,3183.0,1,2,5,choice,2,2,2,3.0,4,4,2,2
1238,1442,w001d343,Blue,1.0,791.0,1,3,5,choice,1,1,6,-3.0,4,4,0,0
1239,1443,w001d343,Food,1.0,2159.0,0,4,5,choice,1,2,-2,-3.0,4,4,1,1
1240,1444,w001d343,Red,0.0,534.0,1,5,5,choice,3,2,-1,-8.0,4,4,2,2
1241,1445,w001d343,Animal,1.0,4386.0,1,6,5,choice,2,1,6,2.0,4,4,1,1
1242,1446,w0b2b304,Yellow,0.0,5569.0,1,1,1,choice,1,2,-3,3.0,3,3,0,0
1243,1447,w0b2b304,Object,0.0,7037.0,1,2,1,choice,3,3,-1,5.0,3,3,1,2
1244,1448,w0b2b304,Scene,1.0,3830.0,1,3,1,choice,1,2,6,6.0,3,3,0,0
1245,1449,w0b2b304,Green,0.0,4398.0,1,4,1,choice,2,3,-4,-4.0,3,3,2,2
1246,1450,w0b2b304,Blue,1.0,1691.0,1,5,1,choice,3,3,5,21.0,3,3,1,2
1247,1451,w0b2b304,Food,0.0,3349.0,1,6,1,choice,2,3,-7,9.0,3,3,2,2
1248,1452,w0b2b304,Blue,1.0,2540.0,1,1,2,choice,1,1,6,6.0,5,5,0,1
1249,1453,w0b2b304,Animal,0.0,3329.0,1,2,2,choice,1,2,-4,-4.0,5,5,1,1
1250,1454,w0b2b304,Food,1.0,1030.0,1,3,2,choice,2,3,7,7.0,5,5,2,3
1251,1455,w0b2b304,Object,1.0,1757.0,1,4,2,choice,3,2,4,6.0,5,5,2,2
1252,1456,w0b2b304,Red,1.0,3960.0,0,5,2,choice,3,3,-1,-1.0,5,5,3,3
1253,1457,w0b2b304,Green,1.0,1698.0,1,6,2,choice,2,2,2,4.0,5,5,2,2
1254,1458,w0b2b304,Animal,0.0,3076.0,1,1,3,choice,2,2,-8,1.0,6,6,2,2
1255,1459,w0b2b304,Yellow,1.0,2574.0,1,2,3,choice,3,2,5,11.0,6,6,3,3
1256,1460,w0b2b304,Scene,1.0,1459.0,0,3,3,choice,3,2,-4,-2.0,6,6,3,3
1257,1461,w0b2b304,Red,0.0,3859.0,1,4,3,choice,1,1,-5,-3.0,6,6,1,1
1258,1462,w0b2b304,Object,1.0,2975.0,1,5,3,choice,1,1,6,3.0,6,6,1,1
1259,1463,w0b2b304,Green,0.0,1939.0,1,6,3,choice,2,3,-6,-6.0,6,6,2,2
1260,1464,w0b2b304,Blue,1.0,2033.0,1,1,4,choice,3,1,3,-1.0,6,6,3,3
1261,1465,w0b2b304,Food,0.0,1496.0,0,2,4,choice,3,2,3,2.0,6,6,3,3
1262,1466,w0b2b304,Animal,1.0,3223.0,1,3,4,choice,2,2,6,3.0,6,6,2,2
1263,1467,w0b2b304,Yellow,0.0,1587.0,1,4,4,choice,1,2,-7,-7.0,6,6,1,1
1264,1468,w0b2b304,Scene,0.0,1518.0,1,5,4,choice,1,1,-9,-9.0,6,6,1,1
1265,1469,w0b2b304,Red,1.0,2815.0,1,6,4,choice,2,2,4,4.0,6,6,2,2
1266,1470,w0b2b304,Food,1.0,3005.0,1,1,5,choice,1,2,2,2.0,5,5,1,2
1267,1471,w0b2b304,Yellow,0.0,1314.0,0,2,5,choice,3,2,1,13.0,5,5,2,2
1268,1472,w0b2b304,Green,0.0,1812.0,1,3,5,choice,2,3,-1,0.0,5,5,2,2
1269,1473,w0b2b304,Blue,0.0,1531.0,1,4,5,choice,1,2,-7,-7.0,5,5,1,1
1270,1474,w0b2b304,Animal,1.0,701.0,0,5,5,choice,3,2,-4,-9.0,5,5,2,2
1271,1475,w0b2b304,Scene,0.0,1982.0,1,6,5,choice,2,1,-5,13.0,5,5,2,2
1272,1476,w3870b92,Green,1.0,6918.0,0,1,1,choice,1,2,-8,-2.0,5,5,1,1
1273,1477,w3870b92,Animal,0.0,2431.0,1,2,1,choice,2,3,-3,8.0,5,5,1,1
1274,1478,w3870b92,Red,0.0,2713.0,0,3,1,choice,2,4,4,8.0,5,5,2,2
1275,1479,w3870b92,Scene,1.0,1911.0,0,4,1,choice,3,4,-3,6.0,5,5,3,4
1276,1480,w3870b92,Blue,1.0,2404.0,1,5,1,choice,3,3,1,15.0,5,5,2,2
1277,1481,w3870b92,Food,0.0,1709.0,0,6,1,choice,1,3,3,7.0,5,5,1,1
1278,1482,w3870b92,Yellow,1.0,1820.0,0,1,2,choice,2,1,-7,-5.0,4,4,1,1
1279,1483,w3870b92,Blue,0.0,2697.0,0,2,2,choice,1,1,5,4.0,4,4,1,1
1280,1484,w3870b92,Object,0.0,2148.0,0,3,2,choice,3,3,4,-2.0,4,4,1,1
1281,1485,w3870b92,Food,1.0,1199.0,0,4,2,choice,2,2,-1,6.0,4,4,2,2
1282,1486,w3870b92,Red,1.0,1274.0,0,5,2,choice,3,3,-2,2.0,4,4,2,2
1283,1487,w3870b92,Scene,0.0,2467.0,1,6,2,choice,1,3,-7,-3.0,4,4,1,2
1284,1488,w3870b92,Green,1.0,2612.0,1,1,3,choice,2,2,3,7.0,1,1,1,2
1285,1489,w3870b92,Yellow,1.0,2154.0,1,2,3,choice,3,2,2,4.0,1,1,0,1
1286,1490,w3870b92,Object,0.0,2720.0,1,3,3,choice,3,2,-2,17.0,1,1,1,1
1287,1491,w3870b92,Animal,1.0,1724.0,0,4,3,choice,2,2,-2,-1.0,1,1,0,0
1288,1492,w3870b92,Scene,1.0,6014.0,1,5,3,choice,1,2,3,4.0,1,1,0,2
1289,1493,w3870b92,Blue,1.0,7111.0,0,6,3,choice,1,2,-6,9.0,1,1,0,0
1290,1494,w3870b92,Yellow,1.0,2098.0,0,1,4,choice,1,1,-6,2.0,3,3,0,0
1291,1495,w3870b92,Blue,0.0,1625.0,0,2,4,choice,3,2,2,11.0,3,3,2,2
1292,1496,w3870b92,Scene,1.0,3337.0,1,3,4,choice,3,3,1,4.0,3,3,2,2
1293,1497,w3870b92,Animal,0.0,1217.0,1,4,4,choice,1,2,-9,2.0,3,3,0,2
1294,1498,w3870b92,Green,1.0,1802.0,1,5,4,choice,2,2,1,-6.0,3,3,1,2
1295,1499,w3870b92,Food,1.0,3318.0,1,6,4,choice,2,1,5,1.0,3,3,1,1
1296,1500,w3870b92,Animal,0.0,3411.0,1,1,5,choice,1,0,-8,-9.0,2,2,1,1
1297,1501,w3870b92,Green,1.0,3618.0,1,2,5,choice,2,2,3,5.0,2,2,1,1
1298,1502,w3870b92,Yellow,1.0,6329.0,0,3,5,choice,1,1,-9,-2.0,2,2,0,0
1299,1503,w3870b92,Red,1.0,3631.0,1,4,5,choice,3,2,1,-2.0,2,2,1,1
1300,1504,w3870b92,Object,1.0,1764.0,0,5,5,choice,2,2,-1,9.0,2,2,1,1
1301,1505,w3870b92,Food,1.0,2734.0,1,6,5,choice,3,2,4,1.0,2,2,0,0
1302,1506,w03114c0,Scene,0.0,3426.0,1,1,1,choice,1,2,-3,4.0,4,4,1,1
1303,1507,w03114c0,Animal,1.0,1477.0,1,2,1,choice,3,2,1,1.0,4,4,2,2
1304,1508,w03114c0,Blue,1.0,2001.0,1,3,1,choice,1,1,4,4.0,4,4,1,2
1305,1509,w03114c0,Green,0.0,3498.0,0,4,1,choice,2,2,3,3.0,4,4,0,0
1306,1510,w03114c0,Yellow,0.0,1138.0,1,5,1,choice,3,3,-2,-1.0,4,4,3,3
1307,1511,w03114c0,Object,1.0,645.0,1,6,1,choice,2,2,7,1.0,4,4,1,2
1308,1512,w03114c0,Yellow,1.0,4046.0,0,1,2,choice,1,1,-7,-8.0,6,6,1,1
1309,1513,w03114c0,Animal,0.0,2279.0,0,2,2,choice,2,1,6,-6.0,6,6,2,2
1310,1514,w03114c0,Red,1.0,1381.0,1,3,2,choice,3,2,3,-11.0,6,6,3,3
1311,1515,w03114c0,Food,0.0,2436.0,0,4,2,choice,3,2,3,-4.0,6,6,3,3
1312,1516,w03114c0,Green,1.0,1582.0,1,5,2,choice,2,1,4,0.0,6,6,2,2
1313,1517,w03114c0,Scene,0.0,637.0,1,6,2,choice,1,1,-9,-9.0,6,6,1,1
1314,1518,w03114c0,Food,1.0,1568.0,0,1,3,choice,2,2,-3,-2.0,3,3,1,2
1315,1519,w03114c0,Object,0.0,2078.0,1,2,3,choice,1,1,-4,-4.0,3,3,1,1
1316,1520,w03114c0,Red,1.0,668.0,1,3,3,choice,3,2,1,2.0,3,3,2,2
1317,1521,w03114c0,Yellow,0.0,1270.0,1,4,3,choice,1,1,-8,-2.0,3,3,0,1
1318,1522,w03114c0,Blue,1.0,2140.0,1,5,3,choice,2,0,2,4.0,3,3,1,1
1319,1523,w03114c0,Animal,0.0,1357.0,0,6,3,choice,3,1,2,10.0,3,3,1,1
1320,1524,w03114c0,Object,0.0,3761.0,1,1,4,choice,2,1,-5,7.0,4,4,1,1
1321,1525,w03114c0,Red,1.0,1140.0,1,2,4,choice,1,1,8,9.0,4,4,1,2
1322,1526,w03114c0,Blue,1.0,521.0,0,3,4,choice,3,2,-2,9.0,4,4,2,2
1323,1527,w03114c0,Food,0.0,2189.0,0,4,4,choice,1,0,9,-4.0,4,4,0,0
1324,1528,w03114c0,Green,1.0,2739.0,0,5,4,choice,2,1,-3,6.0,4,4,1,1
1325,1529,w03114c0,Scene,1.0,578.0,0,6,4,choice,3,3,-1,21.0,4,4,3,3
1326,1530,w03114c0,Scene,1.0,2327.0,0,1,5,choice,2,1,-2,5.0,4,4,1,1
1327,1531,w03114c0,Object,0.0,3280.0,1,2,5,choice,3,1,-3,2.0,4,4,2,2
1328,1532,w03114c0,Red,1.0,4837.0,0,3,5,choice,1,0,-5,0.0,4,4,0,0
1329,1533,w03114c0,Yellow,1.0,1545.0,1,4,5,choice,3,3,3,2.0,4,4,3,3
1330,1534,w03114c0,Blue,1.0,1360.0,1,5,5,choice,2,1,1,9.0,4,4,1,1
1331,1535,w03114c0,Food,1.0,1990.0,1,6,5,choice,1,1,4,4.0,4,4,1,1
1332,1536,w0fc6501,Green,0.0,3828.0,1,1,1,choice,1,4,-8,-7.0,2,2,0,0
1333,1537,w0fc6501,Food,1.0,2423.0,0,2,1,choice,2,4,-7,7.0,2,2,1,1
1334,1538,w0fc6501,Yellow,1.0,1466.0,1,3,1,choice,3,4,1,-2.0,2,2,2,2
1335,1539,w0fc6501,Blue,0.0,2183.0,1,4,1,choice,2,4,-4,3.0,2,2,0,1
1336,1540,w0fc6501,Scene,1.0,2018.0,0,5,1,choice,1,4,-7,-4.0,2,2,1,3
1337,1541,w0fc6501,Animal,0.0,2346.0,0,6,1,choice,3,4,3,-9.0,2,2,0,1
1338,1542,w0fc6501,Red,0.0,4672.0,1,1,2,choice,3,1,-1,-8.0,3,3,1,1
1339,1543,w0fc6501,Green,1.0,4907.0,1,2,2,choice,1,0,3,-2.0,3,3,1,1
1340,1544,w0fc6501,Food,1.0,4003.0,0,3,2,choice,1,1,-2,2.0,3,3,1,2
1341,1545,w0fc6501,Animal,0.0,1801.0,0,4,2,choice,2,1,4,-3.0,3,3,0,0
1342,1546,w0fc6501,Blue,1.0,1874.0,1,5,2,choice,2,2,1,9.0,3,3,1,2
1343,1547,w0fc6501,Object,0.0,1992.0,0,6,2,choice,3,3,1,0.0,3,3,2,2
1344,1548,w0fc6501,Green,1.0,7266.0,1,1,3,choice,2,1,3,11.0,2,2,1,1
1345,1549,w0fc6501,Food,0.0,2390.0,0,2,3,choice,2,0,6,11.0,2,2,0,0
1346,1550,w0fc6501,Blue,1.0,1436.0,1,3,3,choice,3,1,2,10.0,2,2,0,0
1347,1551,w0fc6501,Scene,1.0,1655.0,1,4,3,choice,3,2,1,2.0,2,2,2,2
1348,1552,w0fc6501,Object,0.0,489.0,1,5,3,choice,1,1,-8,7.0,2,2,0,0
1349,1553,w0fc6501,Red,1.0,681.0,0,6,3,choice,1,1,-6,-1.0,2,2,1,1
1350,1554,w0fc6501,Animal,0.0,5389.0,0,1,4,choice,1,0,9,0.0,2,2,0,0
1351,1555,w0fc6501,Yellow,0.0,711.0,1,2,4,choice,3,1,-3,0.0,2,2,1,1
1352,1556,w0fc6501,Object,0.0,2989.0,1,3,4,choice,2,0,-6,0.0,2,2,0,0
1353,1557,w0fc6501,Red,1.0,1462.0,0,4,4,choice,2,1,-2,0.0,2,2,0,0
1354,1558,w0fc6501,Blue,1.0,5951.0,1,5,4,choice,1,1,6,0.0,2,2,1,1
1355,1559,w0fc6501,Scene,0.0,1422.0,1,6,4,choice,3,2,-2,0.0,2,2,2,2
1356,1590,wb0ecf0b,Scene,0.0,2228.0,0,1,1,choice,3,2,4,20.0,6,6,3,3
1357,1591,wb0ecf0b,Yellow,1.0,3627.0,1,2,1,choice,3,3,3,5.0,6,6,3,3
1358,1592,wb0ecf0b,Red,1.0,4378.0,0,3,1,choice,1,7,-9,9.0,6,6,1,1
1359,1593,wb0ecf0b,Object,0.0,4560.0,1,4,1,choice,1,2,-8,5.0,6,6,1,1
1360,1594,wb0ecf0b,Animal,0.0,4132.0,0,5,1,choice,2,2,2,-2.0,6,6,2,2
1361,1595,wb0ecf0b,Blue,0.0,2364.0,0,6,1,choice,2,2,4,9.0,6,6,2,2
1362,1596,wb0ecf0b,Blue,1.0,4628.0,0,1,2,choice,3,3,-1,3.0,6,6,3,3
1363,1597,wb0ecf0b,Yellow,0.0,6698.0,0,2,2,choice,1,1,7,7.0,6,6,1,1
1364,1598,wb0ecf0b,Green,1.0,4440.0,0,3,2,choice,2,2,-8,0.0,6,6,2,2
1365,1599,wb0ecf0b,Scene,,,0,4,2,choice,2,2,-1,3.0,6,6,2,2
1366,1600,wb0ecf0b,Food,1.0,10.0,1,5,2,choice,3,2,2,10.0,6,6,3,3
1367,1601,wb0ecf0b,Object,0.0,1716.0,1,6,2,choice,1,2,-3,-3.0,6,6,1,1
1368,1602,wb0ecf0b,Animal,1.0,2393.0,1,1,3,choice,1,2,7,5.0,2,2,1,1
1369,1603,wb0ecf0b,Yellow,1.0,2425.0,0,2,3,choice,2,2,-1,12.0,2,2,1,1
1370,1604,wb0ecf0b,Green,0.0,1617.0,1,3,3,choice,3,1,-3,-1.0,2,2,1,1
1371,1605,wb0ecf0b,Object,0.0,800.0,1,4,3,choice,2,2,-4,-1.0,2,2,1,1
1372,1606,wb0ecf0b,Blue,1.0,1559.0,1,5,3,choice,1,2,5,-5.0,2,2,0,0
1373,1607,wb0ecf0b,Food,0.0,948.0,1,6,3,choice,3,2,-2,2.0,2,2,0,0
1374,1608,wb0ecf0b,Food,1.0,1543.0,0,1,4,choice,1,2,-9,2.0,4,4,0,0
1375,1609,wb0ecf0b,Animal,0.0,2974.0,0,2,4,choice,2,2,6,3.0,4,4,2,2
1376,1610,wb0ecf0b,Green,1.0,995.0,0,3,4,choice,1,2,-7,-4.0,4,4,1,1
1377,1611,wb0ecf0b,Object,0.0,762.0,0,4,4,choice,3,2,1,4.0,4,4,2,2
1378,1612,wb0ecf0b,Blue,1.0,844.0,1,5,4,choice,2,2,3,0.0,4,4,2,2
1379,1613,wb0ecf0b,Red,1.0,1359.0,1,6,4,choice,3,1,2,13.0,4,4,1,1
1380,1614,wb0ecf0b,Yellow,1.0,3143.0,1,1,5,choice,1,1,8,5.0,4,4,0,0
1381,1615,wb0ecf0b,Animal,,,0,2,5,choice,3,1,6,9.0,4,4,2,2
1382,1616,wb0ecf0b,Scene,0.0,120.0,1,3,5,choice,2,1,-1,13.0,4,4,1,1
1383,1617,wb0ecf0b,Red,0.0,1019.0,1,4,5,choice,3,3,-3,12.0,4,4,3,3
1384,1618,wb0ecf0b,Food,0.0,2370.0,1,5,5,choice,1,2,-4,-6.0,4,4,1,1
1385,1619,wb0ecf0b,Green,0.0,887.0,1,6,5,choice,2,0,-4,-1.0,4,4,1,1
1386,1620,w8937d22,Animal,1.0,6028.0,1,1,1,choice,3,3,1,12.0,6,6,3,3
1387,1621,w8937d22,Scene,0.0,2408.0,1,2,1,choice,2,2,-3,-15.0,6,6,2,2
1388,1622,w8937d22,Red,1.0,3548.0,0,3,1,choice,2,2,-7,-7.0,6,6,2,2
1389,1623,w8937d22,Yellow,1.0,1622.0,0,4,1,choice,3,2,-2,4.0,6,6,3,3
1390,1624,w8937d22,Green,1.0,4166.0,1,5,1,choice,1,1,4,4.0,6,6,1,1
1391,1625,w8937d22,Food,0.0,2906.0,1,6,1,choice,1,1,-3,4.0,6,6,1,1
1392,1626,w8937d22,Red,1.0,3283.0,1,1,2,choice,2,1,1,0.0,5,5,1,1
1393,1627,w8937d22,Animal,0.0,2809.0,1,2,2,choice,1,1,-3,-2.0,5,5,1,1
1394,1628,w8937d22,Yellow,0.0,2820.0,1,3,2,choice,3,3,-1,5.0,5,5,3,3
1395,1629,w8937d22,Object,0.0,2731.0,0,4,2,choice,3,1,1,6.0,5,5,1,1
1396,1630,w8937d22,Blue,1.0,2312.0,1,5,2,choice,1,1,2,6.0,5,5,0,1
1397,1631,w8937d22,Food,1.0,1779.0,1,6,2,choice,2,2,4,7.0,5,5,2,2
1398,1632,w8937d22,Object,0.0,3058.0,1,1,3,choice,1,2,-3,4.0,4,4,1,2
1399,1633,w8937d22,Food,1.0,996.0,1,2,3,choice,3,1,3,1.0,4,4,2,2
1400,1634,w8937d22,Scene,0.0,2110.0,0,3,3,choice,2,1,1,11.0,4,4,1,1
1401,1635,w8937d22,Green,0.0,3399.0,1,4,3,choice,3,1,-1,15.0,4,4,2,3
1402,1636,w8937d22,Blue,0.0,1792.0,1,5,3,choice,2,1,-2,10.0,4,4,2,2
1403,1637,w8937d22,Red,1.0,3065.0,1,6,3,choice,1,1,4,-9.0,4,4,0,0
1404,1638,w8937d22,Blue,1.0,1823.0,0,1,4,choice,3,3,-2,13.0,6,6,3,3
1405,1639,w8937d22,Green,0.0,1932.0,1,2,4,choice,2,2,-2,-8.0,6,6,2,2
1406,1640,w8937d22,Scene,0.0,1993.0,1,3,4,choice,3,2,-4,9.0,6,6,3,3
1407,1641,w8937d22,Yellow,1.0,1572.0,1,4,4,choice,1,1,7,7.0,6,6,1,1
1408,1642,w8937d22,Animal,0.0,3261.0,0,5,4,choice,1,1,8,3.0,6,6,1,1
1409,1643,w8937d22,Food,0.0,2755.0,1,6,4,choice,2,2,-1,0.0,6,6,2,2
1410,1644,w8937d22,Scene,1.0,3271.0,1,1,5,choice,1,1,4,2.0,2,2,0,1
1411,1645,w8937d22,Green,0.0,4180.0,1,2,5,choice,1,2,-7,4.0,2,2,1,3
1412,1646,w8937d22,Animal,0.0,4480.0,1,3,5,choice,2,1,-3,-18.0,2,2,1,1
1413,1647,w8937d22,Object,1.0,1698.0,0,4,5,choice,3,1,-2,14.0,2,2,1,2
1414,1648,w8937d22,Blue,0.0,3096.0,0,5,5,choice,2,1,3,-7.0,2,2,1,1
1415,1649,w8937d22,Red,0.0,1430.0,0,6,5,choice,3,1,3,1.0,2,2,0,1
1416,1650,w0bdd7c4,Object,0.0,4755.0,0,1,1,choice,1,4,2,3.0,3,3,1,1
1417,1651,w0bdd7c4,Blue,0.0,5381.0,1,2,1,choice,2,4,-1,8.0,3,3,1,1
1418,1652,w0bdd7c4,Red,1.0,2221.0,0,3,1,choice,1,4,-6,-6.0,3,3,0,2
1419,1653,w0bdd7c4,Food,0.0,1680.0,1,4,1,choice,3,3,-3,-12.0,3,3,1,2
1420,1654,w0bdd7c4,Animal,1.0,3514.0,0,5,1,choice,2,4,-5,9.0,3,3,1,2
1421,1655,w0bdd7c4,Green,1.0,2716.0,1,6,1,choice,3,4,1,-2.0,3,3,2,2
1422,1656,w0bdd7c4,Blue,0.0,3250.0,1,1,2,choice,3,4,-2,6.0,3,3,2,2
1423,1657,w0bdd7c4,Object,1.0,2155.0,1,2,2,choice,3,4,4,3.0,3,3,1,1
1424,1658,w0bdd7c4,Green,0.0,3569.0,0,3,2,choice,1,4,7,6.0,3,3,0,2
1425,1659,w0bdd7c4,Yellow,0.0,5694.0,1,4,2,choice,2,4,-1,-13.0,3,3,1,1
1426,1660,w0bdd7c4,Scene,0.0,1675.0,1,5,2,choice,1,4,-3,-5.0,3,3,0,2
1427,1661,w0bdd7c4,Food,1.0,1114.0,1,6,2,choice,2,4,3,1.0,3,3,2,3
1428,1662,w0bdd7c4,Animal,0.0,3993.0,0,1,3,choice,1,4,8,5.0,4,4,1,1
1429,1663,w0bdd7c4,Object,0.0,1835.0,1,2,3,choice,2,4,-3,-13.0,4,4,1,2
1430,1664,w0bdd7c4,Scene,1.0,1979.0,0,3,3,choice,3,4,-1,-2.0,4,4,2,2
1431,1665,w0bdd7c4,Green,0.0,3462.0,1,4,3,choice,1,4,-2,-3.0,4,4,1,1
1432,1666,w0bdd7c4,Red,1.0,1090.0,1,5,3,choice,2,4,2,-9.0,4,4,0,1
1433,1667,w0bdd7c4,Yellow,1.0,572.0,1,6,3,choice,3,4,4,2.0,4,4,3,3
1434,1668,w0bdd7c4,Red,0.0,5565.0,0,1,4,choice,2,4,8,-8.0,5,5,2,2
1435,1669,w0bdd7c4,Scene,1.0,3103.0,1,2,4,choice,1,4,4,3.0,5,5,1,1
1436,1670,w0bdd7c4,Animal,0.0,3567.0,1,3,4,choice,3,4,-4,4.0,5,5,2,3
1437,1671,w0bdd7c4,Yellow,0.0,4707.0,1,4,4,choice,1,4,-6,3.0,5,5,1,1
1438,1672,w0bdd7c4,Object,1.0,793.0,1,5,4,choice,2,4,4,-9.0,5,5,2,2
1439,1673,w0bdd7c4,Blue,1.0,624.0,1,6,4,choice,3,4,2,3.0,5,5,2,2
1440,1674,w0bdd7c4,Red,0.0,4279.0,1,1,5,choice,1,4,-7,-6.0,5,5,1,2
1441,1675,w0bdd7c4,Scene,0.0,1081.0,0,2,5,choice,3,4,3,-4.0,5,5,3,3
1442,1676,w0bdd7c4,Green,1.0,1152.0,1,3,5,choice,3,4,3,13.0,5,5,2,2
1443,1677,w0bdd7c4,Yellow,0.0,4376.0,0,4,5,choice,2,4,3,-10.0,5,5,2,2
1444,1678,w0bdd7c4,Animal,1.0,1112.0,0,5,5,choice,1,4,-9,3.0,5,5,1,2
1445,1679,w0bdd7c4,Food,1.0,2132.0,1,6,5,choice,2,4,5,-2.0,5,5,1,1
1446,1680,w5bee286,Food,1.0,4283.0,0,1,1,choice,1,2,-9,-2.0,3,3,0,1
1447,1681,w5bee286,Yellow,1.0,1843.0,1,2,1,choice,3,1,2,2.0,3,3,0,0
1448,1682,w5bee286,Blue,1.0,581.0,0,3,1,choice,1,1,-7,-7.0,3,3,1,3
1449,1683,w5bee286,Red,1.0,942.0,1,4,1,choice,2,1,2,-5.0,3,3,2,2
1450,1684,w5bee286,Animal,0.0,1991.0,0,5,1,choice,3,1,2,-9.0,3,3,2,3
1451,1685,w5bee286,Object,1.0,2981.0,1,6,1,choice,2,1,4,1.0,3,3,1,2
1452,1686,w5bee286,Scene,,,0,1,2,choice,3,3,-3,3.0,6,6,3,3
1453,1687,w5bee286,Red,1.0,2920.0,0,2,2,choice,2,2,-2,6.0,6,6,2,2
1454,1688,w5bee286,Food,0.0,2232.0,1,3,2,choice,2,1,-6,-7.0,6,6,2,2
1455,1689,w5bee286,Object,1.0,1128.0,1,4,2,choice,1,2,8,3.0,6,6,1,1
1456,1690,w5bee286,Green,0.0,1643.0,0,5,2,choice,3,3,5,-10.0,6,6,3,3
1457,1691,w5bee286,Yellow,1.0,2137.0,0,6,2,choice,1,1,-4,3.0,6,6,1,1
1458,1692,w5bee286,Red,0.0,3527.0,0,1,3,choice,1,1,5,2.0,4,4,0,2
1459,1693,w5bee286,Food,1.0,2659.0,1,2,3,choice,2,2,2,-16.0,4,4,2,3
1460,1694,w5bee286,Animal,0.0,2022.0,0,3,3,choice,1,1,9,8.0,4,4,1,1
1461,1695,w5bee286,Yellow,0.0,976.0,1,4,3,choice,3,3,-1,-3.0,4,4,3,3
1462,1696,w5bee286,Blue,1.0,545.0,1,5,3,choice,2,1,5,-6.0,4,4,1,1
1463,1697,w5bee286,Object,0.0,1724.0,1,6,3,choice,3,1,-2,1.0,4,4,1,1
1464,1698,w5bee286,Yellow,0.0,1872.0,0,1,4,choice,1,1,3,-2.0,5,5,0,0
1465,1699,w5bee286,Blue,1.0,480.0,1,2,4,choice,2,2,1,3.0,5,5,2,3
1466,1700,w5bee286,Scene,1.0,1386.0,1,3,4,choice,3,2,2,9.0,5,5,2,2
1467,1701,w5bee286,Animal,1.0,2618.0,0,4,4,choice,1,1,-4,7.0,5,5,1,1
1468,1702,w5bee286,Object,0.0,1262.0,0,5,4,choice,2,1,3,0.0,5,5,2,2
1469,1703,w5bee286,Green,1.0,2660.0,0,6,4,choice,3,2,-3,15.0,5,5,3,3
1470,1704,w5bee286,Red,0.0,1848.0,1,1,5,choice,2,1,-2,-13.0,6,6,1,1
1471,1705,w5bee286,Blue,1.0,1332.0,0,2,5,choice,3,3,-1,14.0,6,6,3,3
1472,1706,w5bee286,Green,1.0,622.0,1,3,5,choice,1,1,8,8.0,6,6,1,1
1473,1707,w5bee286,Animal,1.0,968.0,1,4,5,choice,3,1,4,3.0,6,6,3,3
1474,1708,w5bee286,Food,1.0,2491.0,0,5,5,choice,1,1,-2,6.0,6,6,1,1
1475,1709,w5bee286,Scene,0.0,2067.0,0,6,5,choice,2,0,3,0.0,6,6,1,1
1476,1710,w30bb20e,Green,1.0,3146.0,0,1,1,choice,3,4,-1,-8.0,4,4,2,2
1477,1711,w30bb20e,Food,1.0,5863.0,0,2,1,choice,1,0,-2,0.0,4,4,0,0
1478,1712,w30bb20e,Scene,1.0,3037.0,1,3,1,choice,3,2,4,-6.0,4,4,3,3
1479,1713,w30bb20e,Blue,1.0,3059.0,1,4,1,choice,2,1,6,9.0,4,4,1,1
1480,1714,w30bb20e,Animal,0.0,6626.0,0,5,1,choice,2,1,8,0.0,4,4,1,1
1481,1715,w30bb20e,Red,0.0,7441.0,0,6,1,choice,1,1,5,-7.0,4,4,1,1
1482,1716,w30bb20e,Object,1.0,4596.0,1,1,2,choice,2,2,1,-4.0,5,5,2,2
1483,1717,w30bb20e,Scene,1.0,1830.0,0,2,2,choice,3,2,-1,-9.0,5,5,2,2
1484,1718,w30bb20e,Red,0.0,2556.0,1,3,2,choice,1,1,-3,-4.0,5,5,0,0
1485,1719,w30bb20e,Yellow,1.0,2402.0,1,4,2,choice,2,2,5,-4.0,5,5,2,2
1486,1720,w30bb20e,Animal,0.0,2028.0,0,5,2,choice,1,1,6,0.0,5,5,1,1
1487,1721,w30bb20e,Green,0.0,3274.0,0,6,2,choice,3,3,4,-5.0,5,5,3,3
1488,1722,w30bb20e,Blue,1.0,5690.0,1,1,3,choice,3,1,1,-14.0,4,4,1,1
1489,1723,w30bb20e,Food,1.0,5368.0,0,2,3,choice,3,2,-2,-6.0,4,4,2,2
1490,1724,w30bb20e,Scene,1.0,5655.0,1,3,3,choice,1,1,2,0.0,4,4,1,1
1491,1725,w30bb20e,Green,1.0,5905.0,1,4,3,choice,2,1,3,0.0,4,4,2,2
1492,1726,w30bb20e,Object,1.0,2107.0,1,5,3,choice,2,2,1,-8.0,4,4,1,1
1493,1727,w30bb20e,Yellow,0.0,5846.0,1,6,3,choice,1,1,-3,0.0,4,4,1,1
1494,1728,w30bb20e,Yellow,0.0,1980.0,1,1,4,choice,3,1,-2,-3.0,3,3,0,0
1495,1729,w30bb20e,Animal,0.0,3122.0,0,2,4,choice,2,1,2,-3.0,3,3,1,1
1496,1730,w30bb20e,Red,0.0,1371.0,1,3,4,choice,2,2,-3,-9.0,3,3,2,2
1497,1731,w30bb20e,Scene,1.0,3912.0,0,4,4,choice,1,0,-5,0.0,3,3,0,0
1498,1732,w30bb20e,Food,0.0,2962.0,0,5,4,choice,3,2,1,-9.0,3,3,2,2
1499,1733,w30bb20e,Blue,1.0,4829.0,1,6,4,choice,1,1,3,0.0,3,3,1,1
1500,1734,w30bb20e,Red,1.0,1491.0,1,1,5,choice,3,3,6,-9.0,5,5,3,3
1501,1735,w30bb20e,Animal,1.0,3316.0,0,2,5,choice,3,2,-1,-8.0,5,5,2,2
1502,1736,w30bb20e,Blue,0.0,2579.0,1,3,5,choice,1,1,-3,-5.0,5,5,1,1
1503,1737,w30bb20e,Food,1.0,3906.0,1,4,5,choice,1,1,8,0.0,5,5,1,1
1504,1738,w30bb20e,Object,0.0,1082.0,1,5,5,choice,2,2,-7,-9.0,5,5,2,2
1505,1739,w30bb20e,Yellow,1.0,5541.0,0,6,5,choice,2,1,-3,-3.0,5,5,1,1
1506,1752,wb90ffa2,Blue,1.0,2765.0,1,1,1,choice,1,3,3,0.0,4,4,1,1
