,index,wid,option,choice,rt,correct,trial_number,game,phase,multi_time,multi_dim,dim_shown,n_true_memories,value,remembered_value,n_total_memories_shown,n_total_memories,n_remembered_shown,n_remembered
0,0,wcc033bc,Green,,,0,1,2,choice,Before,Color,Color,3,1,3.0,3,3,0,1
1,1,wcc033bc,Red,0.0,2467.0,1,2,2,choice,Before,Color,Color,1,-1,-2.0,3,3,1,1
2,2,wcc033bc,Blue,1.0,1990.0,0,3,2,choice,Before,Color,Color,2,-1,2.0,3,3,2,3
3,3,wcc033bc,Red,0.0,3592.0,1,1,3,choice,After,Color,Color,3,-1,-1.0,3,3,1,1
4,4,wcc033bc,Yellow,1.0,1976.0,1,2,3,choice,After,Color,Color,2,4,0.0,3,3,1,1
5,5,wcc033bc,Blue,1.0,1474.0,0,3,3,choice,After,Color,Color,1,-2,1.0,3,3,1,2
6,6,w367fa57,Red,1.0,2193.0,1,1,1,choice,After,Color,Color,2,2,2.0,2,2,2,2
7,7,w367fa57,Yellow,0.0,942.0,1,2,1,choice,After,Color,Color,3,-3,-5.0,2,2,0,0
8,8,w367fa57,Green,1.0,2822.0,0,3,1,choice,After,Color,Color,1,-1,1.0,2,2,0,0
9,9,w367fa57,Object,0.0,2874.0,1,1,2,choice,Before,Category,Category,1,-1,-1.0,3,3,0,0
10,10,w367fa57,Food,0.0,3196.0,1,2,2,choice,Before,Category,Category,2,-3,-2.0,3,3,2,2
11,11,w367fa57,Scene,1.0,1078.0,1,3,2,choice,Before,Category,Category,3,5,5.0,3,3,1,1
12,12,w367fa57,Red,1.0,5312.0,1,1,3,choice,After,Color,Color,2,3,3.0,4,4,2,2
13,13,w367fa57,Blue,0.0,1279.0,1,2,3,choice,After,Color,Color,1,-2,-2.0,4,4,1,2
14,14,w367fa57,Green,1.0,1470.0,0,3,3,choice,After,Color,Color,3,-1,0.0,4,4,1,1
15,15,w367fa57,Animal,1.0,3825.0,0,1,4,choice,Before,Category,Category,3,-1,2.0,4,4,1,1
16,16,w367fa57,Object,0.0,4400.0,1,2,4,choice,Before,Category,Category,1,-2,-1.0,4,4,1,1
17,17,w367fa57,Scene,1.0,799.0,1,3,4,choice,Before,Category,Category,2,4,4.0,4,4,2,3
18,18,w367fa57,Animal,0.0,6833.0,1,1,5,choice,After,Category,Category,2,-3,-3.0,6,6,2,2
19,19,w367fa57,Food,,,0,2,5,choice,After,Category,Category,1,-1,-1.0,6,6,1,1
20,20,w367fa57,Object,1.0,2667.0,1,3,5,choice,After,Category,Category,3,6,6.0,6,6,3,3
21,21,w367fa57,Red,0.0,1782.0,1,1,6,choice,Before,Color,Color,3,-5,-5.0,6,6,3,3
22,22,w367fa57,Blue,1.0,1881.0,1,2,6,choice,Before,Color,Color,2,3,3.0,6,6,2,2
23,23,w367fa57,Yellow,1.0,1965.0,1,3,6,choice,Before,Color,Color,1,2,2.0,6,6,1,1
24,24,w367fa57,Animal,0.0,1486.0,1,1,7,choice,After,Category,Category,2,-3,-2.0,3,3,1,1
25,25,w367fa57,Scene,1.0,827.0,1,2,7,choice,After,Category,Category,1,2,2.0,3,3,0,0
26,26,w367fa57,Object,1.0,837.0,1,3,7,choice,After,Category,Category,3,2,4.0,3,3,2,2
27,33,w54c2956,Green,,,0,1,1,choice,Before,Color,Color,2,1,-4.0,5,5,2,2
28,34,w54c2956,Blue,0.0,1485.0,1,2,1,choice,Before,Color,Color,3,-2,-4.0,5,5,2,2
29,35,w54c2956,Red,1.0,2197.0,1,3,1,choice,Before,Color,Color,1,2,2.0,5,5,1,1
30,36,w54c2956,Food,1.0,6439.0,1,1,2,choice,After,Category,Category,2,1,3.0,3,3,1,2
31,37,w54c2956,Scene,0.0,1434.0,1,2,2,choice,After,Category,Category,3,-2,-5.0,3,3,1,1
32,38,w54c2956,Animal,0.0,2597.0,0,3,2,choice,After,Category,Category,1,2,-1.0,3,3,1,1
33,39,w54c2956,Object,1.0,3766.0,1,1,3,choice,Before,Category,Category,3,1,5.0,4,4,2,2
34,40,w54c2956,Animal,1.0,3325.0,1,2,3,choice,Before,Category,Category,2,1,2.0,4,4,1,2
35,41,w54c2956,Scene,0.0,437.0,1,3,3,choice,Before,Category,Category,1,-1,-2.0,4,4,1,1
36,42,w54c2956,Object,1.0,2369.0,1,1,4,choice,After,Category,Category,3,1,3.0,4,4,2,2
37,43,w54c2956,Food,0.0,997.0,1,2,4,choice,After,Category,Category,1,-2,1.0,4,4,1,1
38,44,w54c2956,Animal,1.0,3367.0,1,3,4,choice,After,Category,Category,2,1,1.0,4,4,1,2
39,45,w54c2956,Yellow,0.0,2608.0,0,1,5,choice,Before,Color,Color,1,2,-1.0,4,4,0,2
40,46,w54c2956,Green,1.0,1488.0,1,2,5,choice,Before,Color,Color,3,2,-2.0,4,4,2,2
41,47,w54c2956,Blue,0.0,449.0,1,3,5,choice,Before,Color,Color,2,-3,1.0,4,4,2,2
42,48,w54c2956,Animal,1.0,1496.0,1,1,6,choice,After,Category,Category,2,1,-3.0,4,4,2,2
43,49,w54c2956,Scene,0.0,745.0,0,2,6,choice,After,Category,Category,1,2,-2.0,4,4,0,0
44,50,w54c2956,Food,0.0,2732.0,1,3,6,choice,After,Category,Category,3,-1,3.0,4,4,2,2
45,51,w54c2956,Yellow,0.0,1446.0,0,1,7,choice,Before,Color,Color,3,2,-4.0,2,2,2,3
46,52,w54c2956,Green,0.0,2364.0,1,2,7,choice,Before,Color,Color,2,-4,3.0,2,2,0,1
47,53,w54c2956,Red,1.0,931.0,1,3,7,choice,Before,Color,Color,1,1,-1.0,2,2,0,1
48,60,w1d52e8b,Yellow,0.0,3020.0,0,1,1,choice,After,Color,Color,3,1,-4.0,3,3,1,2
49,61,w1d52e8b,Blue,1.0,1193.0,1,2,1,choice,After,Color,Color,2,1,0.0,3,3,1,1
50,62,w1d52e8b,Green,1.0,1348.0,0,3,1,choice,After,Color,Color,1,-2,-1.0,3,3,1,1
51,63,w1d52e8b,Blue,1.0,1662.0,1,1,2,choice,Before,Color,Color,2,1,-4.0,2,2,0,1
52,64,w1d52e8b,Red,0.0,1461.0,1,2,2,choice,Before,Color,Color,1,-1,0.0,2,2,0,0
53,65,w1d52e8b,Green,1.0,3041.0,1,3,2,choice,Before,Color,Color,3,2,1.0,2,2,2,2
54,66,w1d52e8b,Object,1.0,3144.0,1,1,3,choice,After,Category,Category,1,1,1.0,5,5,0,0
55,67,w1d52e8b,Scene,1.0,1469.0,1,2,3,choice,After,Category,Category,3,2,-2.0,5,5,3,4
56,68,w1d52e8b,Animal,0.0,1300.0,1,3,3,choice,After,Category,Category,2,-2,0.0,5,5,2,2
57,69,w1d52e8b,Red,0.0,1531.0,1,1,4,choice,Before,Color,Color,3,-3,-2.0,2,2,1,2
58,70,w1d52e8b,Yellow,0.0,1586.0,0,2,4,choice,Before,Color,Color,2,2,-3.0,2,2,0,1
59,71,w1d52e8b,Green,0.0,818.0,1,3,4,choice,Before,Color,Color,1,-2,-2.0,2,2,1,2
60,72,w1d52e8b,Scene,1.0,2025.0,0,1,5,choice,After,Category,Category,2,-2,-3.0,3,3,1,2
61,73,w1d52e8b,Object,0.0,1653.0,0,2,5,choice,After,Category,Category,1,2,2.0,3,3,0,2
62,74,w1d52e8b,Animal,0.0,1498.0,0,3,5,choice,After,Category,Category,3,1,-2.0,3,3,2,2
63,75,w1d52e8b,Green,1.0,1636.0,1,1,6,choice,Before,Color,Color,3,3,0.0,3,3,2,2
64,76,w1d52e8b,Yellow,0.0,3991.0,1,2,6,choice,Before,Color,Color,1,-1,-2.0,3,3,0,2
65,77,w1d52e8b,Red,0.0,866.0,1,3,6,choice,Before,Color,Color,2,-1,-1.0,3,3,1,2
66,78,w1d52e8b,Object,0.0,1049.0,0,1,7,choice,After,Category,Category,3,1,-3.0,3,3,2,3
67,79,w1d52e8b,Scene,1.0,1267.0,0,2,7,choice,After,Category,Category,2,-3,-3.0,3,3,0,0
68,80,w1d52e8b,Food,1.0,2165.0,1,3,7,choice,After,Category,Category,1,2,-2.0,3,3,1,3
69,87,w9182e0b,Blue,1.0,2257.0,0,1,2,choice,After,Color,Color,3,-3,3.0,3,3,1,1
70,88,w9182e0b,Green,1.0,1340.0,1,2,2,choice,After,Color,Color,1,2,-2.0,3,3,1,2
71,89,w9182e0b,Yellow,0.0,1301.0,1,3,2,choice,After,Color,Color,2,-1,-1.0,3,3,1,2
72,90,w9182e0b,Animal,0.0,5345.0,1,1,3,choice,Before,Category,Category,1,-2,-1.0,3,3,1,1
73,91,w9182e0b,Scene,0.0,1754.0,1,2,3,choice,Before,Category,Category,2,-3,-3.0,3,3,1,3
74,92,w9182e0b,Food,1.0,811.0,1,3,3,choice,Before,Category,Category,3,4,4.0,3,3,1,1
75,93,w9182e0b,Animal,0.0,1077.0,1,1,4,choice,After,Category,Category,3,-1,-4.0,3,3,2,3
76,94,w9182e0b,Scene,1.0,1467.0,1,2,4,choice,After,Category,Category,2,1,3.0,3,3,1,1
77,95,w9182e0b,Object,1.0,1669.0,1,3,4,choice,After,Category,Category,1,1,-1.0,3,3,0,0
78,96,w9182e0b,Blue,0.0,2645.0,0,1,5,choice,Before,Color,Color,2,3,-3.0,5,5,2,2
79,97,w9182e0b,Green,1.0,1998.0,0,2,5,choice,Before,Color,Color,3,-4,4.0,5,5,3,3
80,98,w9182e0b,Yellow,1.0,4452.0,1,3,5,choice,Before,Color,Color,1,2,-1.0,5,5,0,1
81,99,w9182e0b,Object,1.0,3716.0,1,1,6,choice,After,Category,Category,1,1,1.0,5,5,1,1
82,100,w9182e0b,Food,0.0,488.0,1,2,6,choice,After,Category,Category,2,-3,0.0,5,5,2,3
83,101,w9182e0b,Scene,0.0,1393.0,0,3,6,choice,After,Category,Category,3,2,4.0,5,5,2,2
84,102,w9182e0b,Object,1.0,1072.0,1,1,7,choice,Before,Category,Category,3,1,4.0,4,4,2,2
85,103,w9182e0b,Scene,0.0,599.0,1,2,7,choice,Before,Category,Category,1,-1,1.0,4,4,0,2
86,104,w9182e0b,Animal,0.0,2188.0,1,3,7,choice,Before,Category,Category,2,-1,-3.0,4,4,2,2
87,125,waf52734,Object,,,0,1,1,choice,Before,Category,Category,3,2,2.0,5,5,3,3
88,126,waf52734,Food,0.0,2905.0,1,2,1,choice,Before,Category,Category,1,-2,-2.0,5,5,1,1
89,127,waf52734,Animal,0.0,3719.0,1,3,1,choice,Before,Category,Category,2,-1,-1.0,5,5,1,2
90,128,waf52734,Red,0.0,3523.0,0,1,2,choice,After,Color,Color,3,1,1.0,6,6,3,3
91,129,waf52734,Green,0.0,2643.0,1,2,2,choice,After,Color,Color,1,-1,-1.0,6,6,1,1
92,130,waf52734,Blue,0.0,3200.0,0,3,2,choice,After,Color,Color,2,1,1.0,6,6,2,2
93,131,waf52734,Animal,1.0,3448.0,0,1,3,choice,Before,Category,Category,2,-4,-1.0,5,5,2,2
94,132,waf52734,Scene,1.0,2460.0,1,2,3,choice,Before,Category,Category,1,2,2.0,5,5,1,2
95,133,waf52734,Food,1.0,4191.0,1,3,3,choice,Before,Category,Category,3,2,4.0,5,5,2,2
96,134,waf52734,Red,1.0,3655.0,0,1,4,choice,After,Color,Color,1,-1,-1.0,6,6,1,1
97,135,waf52734,Yellow,0.0,3572.0,1,2,4,choice,After,Color,Color,3,-1,-1.0,6,6,3,3
98,136,waf52734,Blue,0.0,3832.0,0,3,4,choice,After,Color,Color,2,3,0.0,6,6,2,2
99,137,waf52734,Green,0.0,3581.0,1,1,5,choice,Before,Color,Color,3,-1,-1.0,5,5,2,2
100,138,waf52734,Yellow,0.0,4211.0,1,2,5,choice,Before,Color,Color,2,-1,2.0,5,5,2,3
101,139,waf52734,Blue,1.0,1515.0,1,3,5,choice,Before,Color,Color,1,1,1.0,5,5,1,1
102,140,waf52734,Object,1.0,3916.0,1,1,6,choice,After,Category,Category,1,2,1.0,6,6,1,1
103,141,waf52734,Scene,1.0,1388.0,1,2,6,choice,After,Category,Category,2,4,2.0,6,6,2,2
104,142,waf52734,Food,0.0,1376.0,1,3,6,choice,After,Category,Category,3,-4,-4.0,6,6,3,3
105,143,waf52734,Object,1.0,5217.0,1,1,7,choice,Before,Category,Category,2,4,3.0,6,6,2,2
106,144,waf52734,Animal,0.0,3985.0,1,2,7,choice,Before,Category,Category,1,-2,-1.0,6,6,1,1
107,145,waf52734,Scene,0.0,2391.0,1,3,7,choice,Before,Category,Category,3,-2,-6.0,6,6,3,3
108,152,w311c43d,Food,1.0,1579.0,0,1,1,choice,After,Category,Category,1,-1,-1.0,2,2,1,2
109,153,w311c43d,Animal,1.0,2319.0,1,2,1,choice,After,Category,Category,2,3,3.0,2,2,0,1
110,154,w311c43d,Object,0.0,1931.0,1,3,1,choice,After,Category,Category,3,-3,-3.0,2,2,1,2
111,155,w311c43d,Blue,0.0,2680.0,1,1,2,choice,Before,Color,Color,2,-1,-1.0,5,5,1,2
112,156,w311c43d,Green,0.0,2251.0,1,2,2,choice,Before,Color,Color,1,-2,-2.0,5,5,1,1
113,157,w311c43d,Red,1.0,2624.0,1,3,2,choice,Before,Color,Color,3,1,1.0,5,5,3,3
114,158,w311c43d,Food,0.0,2227.0,1,1,3,choice,After,Category,Category,3,-1,-1.0,4,4,2,2
115,159,w311c43d,Scene,1.0,1875.0,1,2,3,choice,After,Category,Category,1,1,1.0,4,4,1,1
116,160,w311c43d,Animal,0.0,2699.0,1,3,3,choice,After,Category,Category,2,-1,-1.0,4,4,1,1
117,161,w311c43d,Object,0.0,2335.0,0,1,4,choice,Before,Category,Category,1,1,1.0,4,4,0,0
118,162,w311c43d,Animal,1.0,2150.0,0,2,4,choice,Before,Category,Category,3,-1,1.0,4,4,2,2
119,163,w311c43d,Scene,1.0,1522.0,1,3,4,choice,Before,Category,Category,2,1,3.0,4,4,2,2
120,164,w311c43d,Blue,1.0,2364.0,1,1,5,choice,After,Color,Color,1,2,2.0,2,2,0,1
121,165,w311c43d,Green,1.0,2596.0,1,2,5,choice,After,Color,Color,3,1,4.0,2,2,1,1
122,166,w311c43d,Yellow,0.0,738.0,1,3,5,choice,After,Color,Color,2,-3,-3.0,2,2,1,1
123,167,w311c43d,Red,1.0,1948.0,1,1,6,choice,Before,Color,Color,2,3,3.0,5,5,1,1
124,168,w311c43d,Green,1.0,2957.0,0,2,6,choice,Before,Color,Color,3,-3,-3.0,5,5,2,2
125,169,w311c43d,Yellow,0.0,2312.0,1,3,6,choice,Before,Color,Color,1,-2,-2.0,5,5,1,1
126,170,w311c43d,Animal,1.0,2462.0,0,1,7,choice,After,Category,Category,1,-1,2.0,1,1,0,0
127,171,w311c43d,Object,1.0,2486.0,0,2,7,choice,After,Category,Category,2,-1,0.0,1,1,0,1
128,172,w311c43d,Scene,0.0,600.0,0,3,7,choice,After,Category,Category,3,1,2.0,1,1,1,1
129,179,wee338ab,Blue,1.0,2709.0,0,1,2,choice,Before,Color,Color,3,-2,-2.0,4,4,1,1
130,180,wee338ab,Green,1.0,1476.0,0,2,2,choice,Before,Color,Color,1,-2,-2.0,4,4,1,2
131,181,wee338ab,Yellow,1.0,2556.0,1,3,2,choice,Before,Color,Color,2,3,-3.0,4,4,2,3
132,182,wee338ab,Blue,1.0,4510.0,1,1,3,choice,After,Color,Color,1,1,-1.0,5,5,1,1
133,183,wee338ab,Red,1.0,2189.0,0,2,3,choice,After,Color,Color,2,-1,3.0,5,5,2,2
134,184,wee338ab,Green,1.0,2114.0,0,3,3,choice,After,Color,Color,3,-2,0.0,5,5,2,3
135,185,wee338ab,Animal,1.0,4375.0,1,1,4,choice,Before,Category,Category,3,1,-3.0,4,4,1,1
136,186,wee338ab,Scene,0.0,1564.0,1,2,4,choice,Before,Category,Category,2,-3,0.0,4,4,2,2
137,187,wee338ab,Object,0.0,4101.0,0,3,4,choice,Before,Category,Category,1,1,-2.0,4,4,1,1
138,188,wee338ab,Animal,1.0,2451.0,0,1,5,choice,After,Category,Category,2,-1,1.0,4,4,1,2
139,189,wee338ab,Food,0.0,3697.0,0,2,5,choice,After,Category,Category,1,1,2.0,4,4,1,1
140,190,wee338ab,Object,0.0,3044.0,1,3,5,choice,After,Category,Category,3,-2,3.0,4,4,2,2
141,191,wee338ab,Object,1.0,3671.0,0,1,6,choice,Before,Category,Category,1,-1,-1.0,5,5,1,1
142,192,wee338ab,Food,1.0,924.0,1,2,6,choice,Before,Category,Category,2,1,1.0,5,5,2,2
143,193,wee338ab,Scene,0.0,824.0,0,3,6,choice,Before,Category,Category,3,1,-3.0,5,5,2,2
144,194,wee338ab,Blue,,,0,1,7,choice,After,Color,Color,2,-3,4.0,4,4,1,2
145,195,wee338ab,Red,0.0,3284.0,0,2,7,choice,After,Color,Color,1,1,-1.0,4,4,0,1
146,196,wee338ab,Green,0.0,3537.0,0,3,7,choice,After,Color,Color,3,3,-1.0,4,4,3,3
147,203,wdd486da,Animal,0.0,1808.0,1,1,1,choice,After,Category,Category,2,-3,-4.0,3,3,0,0
148,204,wdd486da,Object,1.0,1995.0,1,2,1,choice,After,Category,Category,3,3,0.0,3,3,2,3
149,205,wdd486da,Food,0.0,2682.0,0,3,1,choice,After,Category,Category,1,1,-1.0,3,3,1,2
150,206,wdd486da,Object,1.0,1853.0,0,1,2,choice,Before,Category,Category,2,-3,-3.0,3,3,2,3
151,207,wdd486da,Scene,1.0,1627.0,1,2,2,choice,Before,Category,Category,3,4,5.0,3,3,0,0
152,208,wdd486da,Food,0.0,1241.0,1,3,2,choice,Before,Category,Category,1,-2,-2.0,3,3,1,1
153,209,wdd486da,Red,0.0,1566.0,0,1,3,choice,After,Color,Color,2,3,-3.0,2,2,0,1
154,210,wdd486da,Yellow,0.0,1270.0,1,2,3,choice,After,Color,Color,3,-1,-4.0,2,2,2,3
155,211,wdd486da,Green,1.0,1064.0,0,3,3,choice,After,Color,Color,1,-1,-1.0,2,2,0,1
156,212,wdd486da,Blue,1.0,1759.0,1,1,4,choice,Before,Color,Color,2,2,3.0,4,4,1,1
157,213,wdd486da,Yellow,0.0,1435.0,1,2,4,choice,Before,Color,Color,3,-1,-3.0,4,4,2,2
158,214,wdd486da,Red,0.0,1003.0,1,3,4,choice,Before,Color,Color,1,-2,2.0,4,4,1,2
159,215,wdd486da,Blue,1.0,1551.0,1,1,5,choice,After,Color,Color,1,2,1.0,3,3,0,1
160,216,wdd486da,Yellow,0.0,1793.0,1,2,5,choice,After,Color,Color,2,-1,-3.0,3,3,2,3
161,217,wdd486da,Green,1.0,2040.0,0,3,5,choice,After,Color,Color,3,-2,1.0,3,3,1,1
162,218,wdd486da,Green,0.0,1133.0,0,1,6,choice,Before,Color,Color,3,1,0.0,3,3,1,1
163,219,wdd486da,Red,0.0,852.0,1,2,6,choice,Before,Color,Color,2,-2,-3.0,3,3,1,2
164,220,wdd486da,Yellow,0.0,1020.0,0,3,6,choice,Before,Color,Color,1,2,-1.0,3,3,1,2
165,221,wdd486da,Animal,0.0,1537.0,1,1,7,choice,After,Category,Category,1,-1,1.0,4,4,1,3
166,222,wdd486da,Scene,1.0,1051.0,1,2,7,choice,After,Category,Category,3,2,0.0,4,4,2,2
167,223,wdd486da,Object,1.0,970.0,0,3,7,choice,After,Category,Category,2,-1,-1.0,4,4,1,1
168,230,wbe2faf8,Animal,0.0,3019.0,0,1,1,choice,After,Category,Category,2,4,1.0,3,3,0,0
169,231,wbe2faf8,Object,0.0,3062.0,1,2,1,choice,After,Category,Category,3,-1,-1.0,3,3,2,2
170,232,wbe2faf8,Food,1.0,2104.0,0,3,1,choice,After,Category,Category,1,-2,1.0,3,3,1,2
171,233,wbe2faf8,Green,1.0,1767.0,1,1,2,choice,Before,Color,Color,1,1,1.0,6,6,1,1
172,234,wbe2faf8,Yellow,1.0,4650.0,0,2,2,choice,Before,Color,Color,2,-4,-2.0,6,6,2,2
173,235,wbe2faf8,Blue,0.0,2167.0,0,3,2,choice,Before,Color,Color,3,1,1.0,6,6,3,3
174,236,wbe2faf8,Animal,1.0,3319.0,1,1,3,choice,After,Category,Category,1,2,2.0,4,4,1,1
175,237,wbe2faf8,Food,1.0,4241.0,1,2,3,choice,After,Category,Category,3,2,5.0,4,4,1,1
176,238,wbe2faf8,Scene,0.0,706.0,1,3,3,choice,After,Category,Category,2,-2,-2.0,4,4,2,4
177,239,wbe2faf8,Yellow,0.0,2409.0,1,1,4,choice,Before,Color,Color,3,-1,-5.0,5,5,2,2
178,240,wbe2faf8,Blue,0.0,1062.0,1,2,4,choice,Before,Color,Color,2,-1,-3.0,5,5,2,2
179,241,wbe2faf8,Red,1.0,2043.0,1,3,4,choice,Before,Color,Color,1,2,2.0,5,5,1,2
180,242,wbe2faf8,Food,1.0,3363.0,1,1,5,choice,After,Category,Category,1,1,-2.0,5,5,1,2
181,243,wbe2faf8,Animal,0.0,1195.0,1,2,5,choice,After,Category,Category,2,-1,1.0,5,5,1,1
182,244,wbe2faf8,Object,0.0,2104.0,1,3,5,choice,After,Category,Category,3,-3,-1.0,5,5,3,3
183,245,wbe2faf8,Yellow,0.0,1344.0,1,1,6,choice,Before,Color,Color,1,-2,-2.0,5,5,0,1
184,246,wbe2faf8,Blue,0.0,1026.0,0,2,6,choice,Before,Color,Color,2,1,-3.0,5,5,2,2
185,247,wbe2faf8,Red,1.0,638.0,1,3,6,choice,Before,Color,Color,3,2,2.0,5,5,3,3
186,248,wbe2faf8,Animal,1.0,1336.0,1,1,7,choice,After,Category,Category,2,3,3.0,6,6,2,2
187,249,wbe2faf8,Scene,0.0,1177.0,1,2,7,choice,After,Category,Category,1,-2,-1.0,6,6,1,1
188,250,wbe2faf8,Object,0.0,545.0,1,3,7,choice,After,Category,Category,3,-3,-5.0,6,6,3,3
189,257,w6870249,Scene,0.0,3722.0,1,1,1,choice,Before,Category,Category,1,-1,-1.0,3,3,0,1
190,258,w6870249,Food,1.0,3752.0,0,2,1,choice,Before,Category,Category,3,-3,1.0,3,3,2,2
191,259,w6870249,Object,0.0,3190.0,0,3,1,choice,Before,Category,Category,2,2,0.0,3,3,1,1
192,260,w6870249,Green,0.0,1893.0,1,1,2,choice,After,Color,Color,2,-4,0.0,3,3,1,1
193,261,w6870249,Yellow,1.0,1359.0,1,2,2,choice,After,Color,Color,3,2,-1.0,3,3,1,1
194,262,w6870249,Blue,1.0,1204.0,1,3,2,choice,After,Color,Color,1,1,-1.0,3,3,1,2
195,263,w6870249,Animal,,,0,1,3,choice,Before,Category,Category,2,-2,-3.0,5,5,1,1
196,264,w6870249,Object,0.0,186.0,0,2,3,choice,Before,Category,Category,3,2,5.0,5,5,3,3
197,265,w6870249,Scene,1.0,693.0,1,3,3,choice,Before,Category,Category,1,2,2.0,5,5,1,1
198,266,w6870249,Food,1.0,3096.0,0,1,4,choice,After,Category,Category,1,-2,-2.0,4,4,1,1
199,267,w6870249,Object,1.0,1492.0,1,2,4,choice,After,Category,Category,3,1,1.0,4,4,2,2
200,268,w6870249,Animal,1.0,2014.0,1,3,4,choice,After,Category,Category,2,1,1.0,4,4,1,2
201,269,w6870249,Blue,0.0,2464.0,1,1,5,choice,Before,Color,Color,2,-1,-2.0,3,3,1,1
202,270,w6870249,Green,1.0,1361.0,1,2,5,choice,Before,Color,Color,3,2,2.0,3,3,1,1
203,271,w6870249,Yellow,1.0,799.0,0,3,5,choice,Before,Color,Color,1,-1,-1.0,3,3,1,2
204,272,w6870249,Yellow,1.0,3317.0,0,1,6,choice,After,Color,Color,2,-4,-3.0,3,3,0,0
205,273,w6870249,Blue,0.0,1277.0,0,2,6,choice,After,Color,Color,1,2,-2.0,3,3,1,1
206,274,w6870249,Red,1.0,520.0,1,3,6,choice,After,Color,Color,3,2,2.0,3,3,2,2
207,275,w6870249,Red,1.0,997.0,1,1,7,choice,Before,Color,Color,1,2,1.0,5,5,1,2
208,276,w6870249,Yellow,0.0,872.0,1,2,7,choice,Before,Color,Color,3,-5,-6.0,5,5,3,3
209,277,w6870249,Green,1.0,531.0,1,3,7,choice,Before,Color,Color,2,3,4.0,5,5,1,1
210,284,w960c4a6,Scene,1.0,5934.0,0,1,1,choice,After,Category,Category,1,-2,-1.0,5,5,1,1
211,285,w960c4a6,Food,0.0,1540.0,0,2,1,choice,After,Category,Category,3,3,-2.0,5,5,2,2
212,286,w960c4a6,Object,1.0,4295.0,1,3,1,choice,After,Category,Category,2,1,1.0,5,5,2,2
213,287,w960c4a6,Green,0.0,1735.0,1,1,2,choice,Before,Color,Color,2,-3,-3.0,6,6,2,2
214,288,w960c4a6,Yellow,1.0,1121.0,1,2,2,choice,Before,Color,Color,3,1,1.0,6,6,3,3
215,289,w960c4a6,Blue,1.0,1126.0,1,3,2,choice,Before,Color,Color,1,1,1.0,6,6,1,1
216,290,w960c4a6,Scene,1.0,3294.0,1,1,3,choice,After,Category,Category,1,2,2.0,5,5,1,2
217,291,w960c4a6,Animal,0.0,2677.0,1,2,3,choice,After,Category,Category,2,-3,-3.0,5,5,2,2
218,292,w960c4a6,Object,1.0,1189.0,1,3,3,choice,After,Category,Category,3,2,2.0,5,5,2,2
219,293,w960c4a6,Yellow,0.0,2232.0,1,1,4,choice,Before,Color,Color,2,-1,0.0,4,4,1,1
220,294,w960c4a6,Blue,0.0,1291.0,1,2,4,choice,Before,Color,Color,3,-2,-2.0,4,4,2,3
221,295,w960c4a6,Red,1.0,969.0,1,3,4,choice,Before,Color,Color,1,2,1.0,4,4,1,2
222,296,w960c4a6,Yellow,0.0,3490.0,1,1,5,choice,After,Color,Color,1,-1,1.0,5,5,1,1
223,297,w960c4a6,Green,0.0,1413.0,1,2,5,choice,After,Color,Color,3,-1,-1.0,5,5,3,3
224,298,w960c4a6,Blue,1.0,4530.0,1,3,5,choice,After,Color,Color,2,4,0.0,5,5,1,1
225,299,w960c4a6,Scene,1.0,4744.0,1,1,6,choice,Before,Category,Category,1,1,1.0,5,5,1,1
226,300,w960c4a6,Animal,0.0,1925.0,0,2,6,choice,Before,Category,Category,2,1,1.0,5,5,1,1
227,301,w960c4a6,Food,0.0,1863.0,1,3,6,choice,Before,Category,Category,3,-2,2.0,5,5,3,3
228,302,w960c4a6,Scene,1.0,2064.0,1,1,7,choice,After,Category,Category,3,3,2.0,4,4,2,2
229,303,w960c4a6,Food,0.0,3190.0,1,2,7,choice,After,Category,Category,2,-1,-3.0,4,4,1,2
230,304,w960c4a6,Object,0.0,3018.0,1,3,7,choice,After,Category,Category,1,-2,-1.0,4,4,1,1
231,311,we39fc55,Yellow,1.0,3027.0,1,1,1,choice,After,Color,Color,3,2,5.0,3,3,0,0
232,312,we39fc55,Green,0.0,2026.0,0,2,1,choice,After,Color,Color,1,1,1.0,3,3,1,1
233,313,we39fc55,Blue,1.0,979.0,0,3,1,choice,After,Color,Color,2,-3,0.0,3,3,2,3
234,314,we39fc55,Scene,1.0,4727.0,0,1,2,choice,Before,Category,Category,1,-2,1.0,3,3,1,3
235,315,we39fc55,Object,0.0,4963.0,0,2,2,choice,Before,Category,Category,2,1,1.0,3,3,1,1
236,316,we39fc55,Food,1.0,1852.0,1,3,2,choice,Before,Category,Category,3,3,5.0,3,3,1,1
237,317,we39fc55,Yellow,0.0,3910.0,1,1,3,choice,After,Color,Color,2,-4,0.0,4,4,1,1
238,318,we39fc55,Red,0.0,2529.0,0,2,3,choice,After,Color,Color,3,3,-5.0,4,4,2,3
239,319,we39fc55,Blue,1.0,1113.0,1,3,3,choice,After,Color,Color,1,2,2.0,4,4,1,1
240,320,we39fc55,Animal,0.0,4132.0,1,1,4,choice,Before,Category,Category,1,-2,-2.0,6,6,1,1
241,321,we39fc55,Object,0.0,1753.0,1,2,4,choice,Before,Category,Category,2,-3,1.0,6,6,2,2
242,322,we39fc55,Food,0.0,2610.0,0,3,4,choice,Before,Category,Category,3,5,-1.0,6,6,3,3
243,323,we39fc55,Animal,1.0,2560.0,0,1,5,choice,After,Category,Category,3,-3,1.0,3,3,1,1
244,324,we39fc55,Object,0.0,1192.0,0,2,5,choice,After,Category,Category,1,2,-1.0,3,3,1,3
245,325,we39fc55,Scene,1.0,908.0,0,3,5,choice,After,Category,Category,2,-1,1.0,3,3,1,1
246,326,we39fc55,Green,1.0,1838.0,0,1,6,choice,Before,Color,Color,3,-1,2.0,4,4,1,1
247,327,we39fc55,Red,0.0,2036.0,0,2,6,choice,Before,Color,Color,2,1,0.0,4,4,2,4
248,328,we39fc55,Yellow,1.0,993.0,1,3,6,choice,Before,Color,Color,1,1,-1.0,4,4,1,1
249,329,we39fc55,Yellow,1.0,795.0,0,1,7,choice,After,Color,Color,2,-1,2.0,3,3,2,3
250,330,we39fc55,Blue,1.0,585.0,0,2,7,choice,After,Color,Color,3,-1,-5.0,3,3,1,1
251,331,we39fc55,Green,1.0,354.0,1,3,7,choice,After,Color,Color,1,1,2.0,3,3,0,1
252,338,we40084a,Food,,,0,1,1,choice,After,Category,Category,1,2,1.0,3,3,0,1
253,339,we40084a,Animal,1.0,2207.0,0,2,1,choice,After,Category,Category,3,-3,2.0,3,3,2,2
254,340,we40084a,Scene,1.0,5981.0,1,3,1,choice,After,Category,Category,2,1,-3.0,3,3,1,1
255,341,we40084a,Food,,,0,1,2,choice,Before,Category,Category,3,2,-1.0,6,6,3,3
256,342,we40084a,Scene,1.0,3917.0,0,2,2,choice,Before,Category,Category,1,-2,-1.0,6,6,1,1
257,343,we40084a,Object,1.0,4291.0,1,3,2,choice,Before,Category,Category,2,1,1.0,6,6,2,2
258,344,we40084a,Blue,1.0,4509.0,1,1,3,choice,After,Color,Color,1,1,1.0,5,5,1,1
259,345,we40084a,Red,0.0,4548.0,1,2,3,choice,After,Color,Color,3,-1,-4.0,5,5,2,2
260,346,we40084a,Yellow,0.0,3685.0,1,3,3,choice,After,Color,Color,2,-1,-3.0,5,5,2,2
261,347,we40084a,Red,0.0,5438.0,1,1,4,choice,Before,Color,Color,3,-1,-3.0,4,4,1,1
262,348,we40084a,Green,0.0,5320.0,1,2,4,choice,Before,Color,Color,1,-1,-1.0,4,4,1,1
263,349,we40084a,Yellow,1.0,2817.0,1,3,4,choice,Before,Color,Color,2,2,2.0,4,4,2,2
264,350,we40084a,Green,0.0,3542.0,0,1,5,choice,After,Color,Color,3,2,-1.0,3,3,1,1
265,351,we40084a,Red,1.0,4344.0,1,2,5,choice,After,Color,Color,2,1,0.0,3,3,1,1
266,352,we40084a,Blue,0.0,3011.0,1,3,5,choice,After,Color,Color,1,-2,1.0,3,3,1,1
267,353,we40084a,Red,1.0,4319.0,0,1,6,choice,Before,Color,Color,2,-1,4.0,3,3,2,2
268,354,we40084a,Green,1.0,6761.0,0,2,6,choice,Before,Color,Color,3,-2,-3.0,3,3,0,1
269,355,we40084a,Yellow,0.0,5598.0,0,3,6,choice,Before,Color,Color,1,1,1.0,3,3,1,1
270,356,we40084a,Food,1.0,4210.0,1,1,7,choice,After,Category,Category,1,2,2.0,4,4,1,1
271,357,we40084a,Object,0.0,4082.0,0,2,7,choice,After,Category,Category,3,1,2.0,4,4,1,1
272,358,we40084a,Scene,0.0,3560.0,1,3,7,choice,After,Category,Category,2,-3,-1.0,4,4,2,3
273,365,w5d6df14,Food,1.0,4757.0,0,1,1,choice,After,Category,Category,1,-1,-1.0,4,4,1,1
274,366,w5d6df14,Animal,0.0,2307.0,0,2,1,choice,After,Category,Category,2,3,4.0,4,4,1,1
275,367,w5d6df14,Object,0.0,3347.0,1,3,1,choice,After,Category,Category,3,-2,1.0,4,4,2,2
276,368,w5d6df14,Scene,1.0,4448.0,0,1,2,choice,Before,Category,Category,3,-4,2.0,3,3,2,2
277,369,w5d6df14,Food,0.0,3928.0,0,2,2,choice,Before,Category,Category,2,3,0.0,3,3,1,2
278,370,w5d6df14,Object,1.0,5833.0,1,3,2,choice,Before,Category,Category,1,1,1.0,3,3,0,0
279,371,w5d6df14,Green,1.0,4645.0,0,1,3,choice,After,Color,Color,3,-3,2.0,2,2,1,1
280,372,w5d6df14,Red,1.0,2080.0,0,2,3,choice,After,Color,Color,2,-1,-1.0,2,2,1,1
281,373,w5d6df14,Blue,1.0,2858.0,1,3,3,choice,After,Color,Color,1,1,1.0,2,2,0,1
282,374,w5d6df14,Scene,1.0,2019.0,0,1,4,choice,Before,Category,Category,2,-4,-1.0,3,3,1,1
283,375,w5d6df14,Object,0.0,4783.0,1,2,4,choice,Before,Category,Category,1,-1,-1.0,3,3,1,1
284,376,w5d6df14,Animal,0.0,3790.0,0,3,4,choice,Before,Category,Category,3,5,5.0,3,3,1,1
285,377,w5d6df14,Yellow,0.0,5708.0,1,1,5,choice,After,Color,Color,1,-1,-1.0,4,4,1,1
286,378,w5d6df14,Blue,1.0,2417.0,0,2,5,choice,After,Color,Color,2,-1,2.0,4,4,1,2
287,379,w5d6df14,Green,1.0,5640.0,1,3,5,choice,After,Color,Color,3,3,5.0,4,4,2,2
288,380,w5d6df14,Object,1.0,5792.0,0,1,6,choice,Before,Category,Category,1,-1,-1.0,3,3,0,2
289,381,w5d6df14,Food,1.0,2346.0,1,2,6,choice,Before,Category,Category,2,2,3.0,3,3,1,1
290,382,w5d6df14,Scene,1.0,3146.0,0,3,6,choice,Before,Category,Category,3,-1,-1.0,3,3,2,2
291,383,w5d6df14,Red,1.0,5866.0,0,1,7,choice,After,Color,Color,1,-2,-2.0,4,4,1,2
292,384,w5d6df14,Green,0.0,1406.0,1,2,7,choice,After,Color,Color,3,-2,-4.0,4,4,2,2
293,385,w5d6df14,Blue,0.0,3131.0,0,3,7,choice,After,Color,Color,2,3,-2.0,4,4,1,1
294,392,w6cbe87c,Scene,1.0,3436.0,1,1,1,choice,After,Category,Category,1,1,0.0,3,3,1,1
295,393,w6cbe87c,Object,0.0,3721.0,1,2,1,choice,After,Category,Category,2,-2,0.0,3,3,1,2
296,394,w6cbe87c,Food,0.0,2227.0,0,3,1,choice,After,Category,Category,3,2,0.0,3,3,1,1
297,395,w6cbe87c,Green,0.0,2084.0,1,1,2,choice,Before,Color,Color,2,-4,0.0,4,4,1,2
298,396,w6cbe87c,Yellow,1.0,947.0,1,2,2,choice,Before,Color,Color,3,1,0.0,4,4,2,2
299,397,w6cbe87c,Blue,1.0,889.0,1,3,2,choice,Before,Color,Color,1,1,0.0,4,4,1,2
300,398,w6cbe87c,Scene,0.0,1989.0,0,1,3,choice,After,Category,Category,1,2,0.0,2,2,1,2
301,399,w6cbe87c,Object,1.0,844.0,0,2,3,choice,After,Category,Category,3,-1,0.0,2,2,0,0
302,400,w6cbe87c,Animal,0.0,1511.0,0,3,3,choice,After,Category,Category,2,1,0.0,2,2,1,2
303,401,w6cbe87c,Animal,0.0,3092.0,1,1,4,choice,Before,Category,Category,2,-4,0.0,5,5,1,1
304,402,w6cbe87c,Object,1.0,984.0,1,2,4,choice,Before,Category,Category,3,2,0.0,5,5,3,3
305,403,w6cbe87c,Food,1.0,1995.0,1,3,4,choice,Before,Category,Category,1,2,0.0,5,5,1,1
306,404,w6cbe87c,Object,0.0,1949.0,0,1,5,choice,After,Category,Category,1,2,0.0,1,1,0,0
307,405,w6cbe87c,Scene,1.0,1481.0,1,2,5,choice,After,Category,Category,3,1,0.0,1,1,0,0
308,406,w6cbe87c,Animal,0.0,475.0,1,3,5,choice,After,Category,Category,2,-3,0.0,1,1,1,1
309,407,w6cbe87c,Red,1.0,1443.0,1,1,6,choice,Before,Color,Color,3,1,0.0,1,1,1,1
310,408,w6cbe87c,Yellow,0.0,2145.0,1,2,6,choice,Before,Color,Color,2,-4,0.0,1,1,0,0
311,409,w6cbe87c,Blue,1.0,1632.0,1,3,6,choice,Before,Color,Color,1,1,0.0,1,1,0,0
312,410,w6cbe87c,Red,1.0,816.0,1,1,7,choice,After,Color,Color,1,1,0.0,2,2,1,2
313,411,w6cbe87c,Yellow,0.0,1042.0,1,2,7,choice,After,Color,Color,3,-2,0.0,2,2,1,1
314,412,w6cbe87c,Green,1.0,1051.0,0,3,7,choice,After,Color,Color,2,-1,0.0,2,2,0,0
315,419,w4db7ccb,Food,1.0,7298.0,1,1,1,choice,After,Category,Category,1,2,2.0,6,6,1,1
316,420,w4db7ccb,Animal,,,0,2,1,choice,After,Category,Category,2,-3,-3.0,6,6,2,2
317,421,w4db7ccb,Object,,,0,3,1,choice,After,Category,Category,3,2,2.0,6,6,3,3
318,422,w4db7ccb,Blue,1.0,4910.0,1,1,2,choice,Before,Color,Color,3,1,-1.0,6,6,3,3
319,423,w4db7ccb,Yellow,0.0,2748.0,1,2,2,choice,Before,Color,Color,2,-3,-2.0,6,6,2,2
320,424,w4db7ccb,Green,0.0,3519.0,0,3,2,choice,Before,Color,Color,1,2,2.0,6,6,1,1
321,425,w4db7ccb,Scene,0.0,2727.0,1,1,3,choice,After,Category,Category,2,-1,-1.0,6,6,2,2
322,426,w4db7ccb,Food,0.0,2127.0,1,2,3,choice,After,Category,Category,3,-1,-1.0,6,6,3,3
323,427,w4db7ccb,Animal,1.0,685.0,1,3,3,choice,After,Category,Category,1,2,2.0,6,6,1,1
324,428,w4db7ccb,Animal,1.0,1811.0,1,1,4,choice,Before,Category,Category,3,1,-1.0,5,5,2,3
325,429,w4db7ccb,Object,0.0,2607.0,1,2,4,choice,Before,Category,Category,1,-2,-1.0,5,5,1,1
326,430,w4db7ccb,Scene,1.0,715.0,0,3,4,choice,Before,Category,Category,2,-1,-2.0,5,5,2,2
327,431,w4db7ccb,Blue,0.0,2737.0,1,1,5,choice,After,Color,Color,2,-2,-2.0,6,6,2,2
328,432,w4db7ccb,Yellow,0.0,1346.0,1,2,5,choice,After,Color,Color,1,-1,-1.0,6,6,1,1
329,433,w4db7ccb,Green,1.0,698.0,1,3,5,choice,After,Color,Color,3,5,5.0,6,6,3,3
330,434,w4db7ccb,Scene,,,0,1,6,choice,Before,Category,Category,3,-1,-1.0,6,6,3,3
331,435,w4db7ccb,Food,0.0,2359.0,0,2,6,choice,Before,Category,Category,2,4,4.0,6,6,2,2
332,436,w4db7ccb,Object,0.0,2726.0,1,3,6,choice,Before,Category,Category,1,-2,-2.0,6,6,1,1
333,437,w4db7ccb,Red,1.0,1841.0,1,1,7,choice,After,Color,Color,1,2,2.0,5,5,1,1
334,438,w4db7ccb,Green,0.0,1331.0,1,2,7,choice,After,Color,Color,3,-2,-2.0,5,5,3,3
335,439,w4db7ccb,Blue,1.0,1041.0,1,3,7,choice,After,Color,Color,2,1,1.0,5,5,1,2
336,446,w9a08173,Yellow,0.0,6820.0,1,1,1,choice,After,Color,Color,1,-2,-1.0,3,3,0,0
337,447,w9a08173,Blue,0.0,3190.0,1,2,1,choice,After,Color,Color,3,-1,-4.0,3,3,2,2
338,448,w9a08173,Green,1.0,2531.0,1,3,1,choice,After,Color,Color,2,4,1.0,3,3,1,1
339,449,w9a08173,Blue,1.0,2450.0,1,1,2,choice,Before,Color,Color,2,1,1.0,3,3,1,2
340,450,w9a08173,Red,0.0,1746.0,0,2,2,choice,Before,Color,Color,3,3,-3.0,3,3,2,2
341,451,w9a08173,Green,1.0,1989.0,0,3,2,choice,Before,Color,Color,1,-2,-1.0,3,3,0,0
342,452,w9a08173,Food,1.0,3261.0,0,1,3,choice,After,Category,Category,3,-2,-4.0,4,4,2,2
343,453,w9a08173,Animal,1.0,2343.0,1,2,3,choice,After,Category,Category,2,1,0.0,4,4,1,2
344,454,w9a08173,Scene,1.0,1805.0,1,3,3,choice,After,Category,Category,1,2,-2.0,4,4,1,1
345,455,w9a08173,Yellow,1.0,1879.0,0,1,4,choice,Before,Color,Color,3,-2,-3.0,5,5,2,2
346,456,w9a08173,Red,0.0,1716.0,1,2,4,choice,Before,Color,Color,1,-2,-2.0,5,5,1,1
347,457,w9a08173,Blue,1.0,2079.0,1,3,4,choice,Before,Color,Color,2,3,-3.0,5,5,2,2
348,458,w9a08173,Scene,1.0,1760.0,1,1,5,choice,After,Category,Category,1,2,-2.0,3,3,1,2
349,459,w9a08173,Animal,1.0,1743.0,0,2,5,choice,After,Category,Category,2,-2,-2.0,3,3,1,2
350,460,w9a08173,Food,0.0,2150.0,0,3,5,choice,After,Category,Category,3,2,-4.0,3,3,1,1
351,461,w9a08173,Food,1.0,1850.0,1,1,6,choice,Before,Category,Category,3,3,-4.0,3,3,1,1
352,462,w9a08173,Scene,1.0,1810.0,0,2,6,choice,Before,Category,Category,2,-1,-3.0,3,3,2,2
353,463,w9a08173,Object,0.0,1827.0,1,3,6,choice,Before,Category,Category,1,-2,-2.0,3,3,0,0
354,464,w9a08173,Scene,1.0,1198.0,1,1,7,choice,After,Category,Category,3,2,-1.0,3,3,2,3
355,465,w9a08173,Animal,1.0,1588.0,0,2,7,choice,After,Category,Category,1,-2,-1.0,3,3,1,2
356,466,w9a08173,Object,1.0,2291.0,1,3,7,choice,After,Category,Category,2,1,0.0,3,3,0,0
357,467,w3002e39,Blue,1.0,4532.0,0,1,1,choice,After,Color,Color,3,-1,2.0,5,5,2,2
358,468,w3002e39,Yellow,1.0,6752.0,1,2,1,choice,After,Color,Color,2,2,3.0,5,5,2,3
359,469,w3002e39,Red,0.0,5943.0,1,3,1,choice,After,Color,Color,1,-2,-2.0,5,5,1,1
360,470,w3002e39,Scene,,,0,1,2,choice,Before,Category,Category,2,3,2.0,4,4,1,1
361,471,w3002e39,Object,0.0,4370.0,1,2,2,choice,Before,Category,Category,1,-1,-1.0,4,4,1,1
362,472,w3002e39,Food,0.0,2418.0,1,3,2,choice,Before,Category,Category,3,-3,-3.0,4,4,2,2
363,473,w3002e39,Animal,1.0,2845.0,1,1,3,choice,After,Category,Category,3,4,4.0,3,3,2,2
364,474,w3002e39,Object,0.0,2140.0,1,2,3,choice,After,Category,Category,2,-4,-4.0,3,3,1,1
365,475,w3002e39,Food,1.0,2954.0,0,3,3,choice,After,Category,Category,1,-1,1.0,3,3,0,0
366,476,w3002e39,Green,0.0,1544.0,1,1,4,choice,Before,Color,Color,2,-1,3.0,4,4,1,1
367,477,w3002e39,Red,1.0,1152.0,1,2,4,choice,Before,Color,Color,3,2,2.0,4,4,3,3
368,478,w3002e39,Blue,1.0,1811.0,0,3,4,choice,Before,Color,Color,1,-2,-2.0,4,4,0,1
369,479,w3002e39,Green,0.0,1621.0,1,1,5,choice,After,Color,Color,3,-4,-4.0,4,4,2,2
370,480,w3002e39,Yellow,1.0,2552.0,1,2,5,choice,After,Color,Color,1,1,1.0,4,4,1,1
371,481,w3002e39,Red,1.0,1836.0,1,3,5,choice,After,Color,Color,2,4,4.0,4,4,1,2
372,482,w3002e39,Scene,0.0,2697.0,1,1,6,choice,Before,Category,Category,1,-2,2.0,5,5,1,1
373,483,w3002e39,Food,1.0,3526.0,1,2,6,choice,Before,Category,Category,3,3,0.0,5,5,2,2
374,484,w3002e39,Animal,1.0,4055.0,1,3,6,choice,Before,Category,Category,2,1,-2.0,5,5,2,2
375,485,w3002e39,Yellow,0.0,1660.0,1,1,7,choice,After,Color,Color,1,-2,-1.0,3,3,0,0
376,486,w3002e39,Green,1.0,826.0,0,2,7,choice,After,Color,Color,3,-2,-2.0,3,3,2,2
377,487,w3002e39,Blue,0.0,2585.0,0,3,7,choice,After,Color,Color,2,3,0.0,3,3,1,2
378,494,w7a38a77,Food,0.0,2524.0,1,1,1,choice,After,Category,Category,1,-2,-2.0,3,3,1,1
379,495,w7a38a77,Animal,1.0,1288.0,1,2,1,choice,After,Category,Category,2,3,1.0,3,3,1,2
380,496,w7a38a77,Object,0.0,3158.0,1,3,1,choice,After,Category,Category,3,-2,2.0,3,3,1,1
381,497,w7a38a77,Blue,1.0,1016.0,1,1,2,choice,Before,Color,Color,3,1,2.0,5,5,2,2
382,498,w7a38a77,Green,0.0,1106.0,1,2,2,choice,Before,Color,Color,1,-1,-1.0,5,5,1,1
383,499,w7a38a77,Yellow,1.0,2550.0,0,3,2,choice,Before,Color,Color,2,-1,-1.0,5,5,2,2
384,500,w7a38a77,Scene,1.0,919.0,0,1,3,choice,After,Category,Category,2,-2,3.0,5,5,2,2
385,501,w7a38a77,Animal,1.0,2351.0,1,2,3,choice,After,Category,Category,1,2,2.0,5,5,1,1
386,502,w7a38a77,Food,0.0,699.0,0,3,3,choice,After,Category,Category,3,1,0.0,5,5,2,3
387,503,w7a38a77,Red,0.0,1884.0,1,1,4,choice,Before,Color,Color,1,-2,-1.0,3,3,1,2
388,504,w7a38a77,Blue,1.0,3417.0,1,2,4,choice,Before,Color,Color,2,1,-3.0,3,3,1,2
389,505,w7a38a77,Yellow,1.0,764.0,1,3,4,choice,Before,Color,Color,3,3,0.0,3,3,1,1
390,506,w7a38a77,Animal,,,0,1,5,choice,After,Category,Category,2,-1,0.0,3,3,2,2
391,507,w7a38a77,Food,0.0,2262.0,0,2,5,choice,After,Category,Category,1,2,1.0,3,3,0,1
392,508,w7a38a77,Object,1.0,1932.0,0,3,5,choice,After,Category,Category,3,-3,-3.0,3,3,1,1
393,509,w7a38a77,Blue,0.0,1880.0,1,1,6,choice,Before,Color,Color,2,-3,-3.0,5,5,2,2
394,510,w7a38a77,Red,1.0,1243.0,1,2,6,choice,Before,Color,Color,3,1,1.0,5,5,2,2
395,511,w7a38a77,Yellow,1.0,580.0,1,3,6,choice,Before,Color,Color,1,2,1.0,5,5,1,1
396,512,w7a38a77,Red,0.0,1597.0,0,1,7,choice,After,Color,Color,1,1,-1.0,4,4,1,2
397,513,w7a38a77,Green,1.0,599.0,1,2,7,choice,After,Color,Color,3,1,1.0,4,4,3,3
398,514,w7a38a77,Blue,0.0,1353.0,1,3,7,choice,After,Color,Color,2,-2,-4.0,4,4,0,0
399,521,wcd98054,Blue,1.0,4749.0,1,1,1,choice,Before,Color,Color,3,6,6.0,6,6,3,3
400,522,wcd98054,Red,0.0,987.0,1,2,1,choice,Before,Color,Color,1,-1,-1.0,6,6,1,1
401,523,wcd98054,Green,0.0,755.0,1,3,1,choice,Before,Color,Color,2,-3,-3.0,6,6,2,2
402,524,wcd98054,Food,0.0,4244.0,1,1,2,choice,After,Category,Category,2,-2,-2.0,6,6,2,2
403,525,wcd98054,Animal,1.0,1745.0,1,2,2,choice,After,Category,Category,1,1,1.0,6,6,1,1
404,526,wcd98054,Scene,1.0,994.0,1,3,2,choice,After,Category,Category,3,2,4.0,6,6,3,3
405,527,wcd98054,Animal,,,0,1,3,choice,Before,Category,Category,2,-2,-3.0,4,4,1,2
406,528,wcd98054,Scene,1.0,2702.0,1,2,3,choice,Before,Category,Category,1,1,1.0,4,4,1,1
407,529,wcd98054,Object,1.0,4009.0,1,3,3,choice,Before,Category,Category,3,1,1.0,4,4,2,2
408,530,wcd98054,Yellow,1.0,2568.0,0,1,4,choice,After,Color,Color,2,-3,2.0,3,3,1,1
409,531,wcd98054,Red,1.0,3865.0,1,2,4,choice,After,Color,Color,1,1,0.0,3,3,0,0
410,532,wcd98054,Blue,0.0,4667.0,0,3,4,choice,After,Color,Color,3,3,2.0,3,3,2,2
411,533,wcd98054,Animal,0.0,3359.0,1,1,5,choice,Before,Category,Category,2,-3,-2.0,6,6,2,2
412,534,wcd98054,Object,1.0,5151.0,1,2,5,choice,Before,Category,Category,1,1,1.0,6,6,1,1
413,535,wcd98054,Scene,1.0,3436.0,1,3,5,choice,Before,Category,Category,3,2,2.0,6,6,3,3
414,536,wcd98054,Animal,1.0,3474.0,1,1,6,choice,After,Category,Category,2,3,3.0,1,1,1,1
415,537,wcd98054,Food,0.0,2035.0,1,2,6,choice,After,Category,Category,3,-3,0.0,1,1,0,0
416,538,wcd98054,Scene,1.0,3985.0,0,3,6,choice,After,Category,Category,1,-2,-1.0,1,1,0,0
417,539,wcd98054,Green,1.0,4874.0,0,1,7,choice,Before,Color,Color,2,-1,1.0,5,5,2,2
418,540,wcd98054,Red,1.0,3971.0,1,2,7,choice,Before,Color,Color,1,2,2.0,5,5,1,1
419,541,wcd98054,Yellow,0.0,3937.0,1,3,7,choice,Before,Color,Color,3,-1,3.0,5,5,2,3
420,548,wab70ec3,Food,1.0,3798.0,0,1,1,choice,Before,Category,Category,1,-1,1.0,3,3,0,1
421,549,wab70ec3,Scene,0.0,4142.0,1,2,1,choice,Before,Category,Category,2,-4,-4.0,3,3,2,3
422,550,wab70ec3,Animal,1.0,2516.0,1,3,1,choice,Before,Category,Category,3,3,2.0,3,3,1,1
423,551,wab70ec3,Blue,1.0,2958.0,1,1,2,choice,After,Color,Color,2,2,1.0,4,4,1,2
424,552,wab70ec3,Green,0.0,5087.0,1,2,2,choice,After,Color,Color,3,-2,-2.0,4,4,2,2
425,553,wab70ec3,Red,1.0,984.0,0,3,2,choice,After,Color,Color,1,-1,-1.0,4,4,1,2
426,554,wab70ec3,Red,1.0,3421.0,0,1,3,choice,Before,Color,Color,3,-2,2.0,3,3,0,1
427,555,wab70ec3,Yellow,1.0,2761.0,1,2,3,choice,Before,Color,Color,2,4,1.0,3,3,2,2
428,556,wab70ec3,Blue,0.0,1018.0,1,3,3,choice,Before,Color,Color,1,-2,-2.0,3,3,1,2
429,557,wab70ec3,Green,0.0,4133.0,0,1,4,choice,After,Color,Color,1,1,2.0,2,2,1,1
430,558,wab70ec3,Red,1.0,1703.0,0,2,4,choice,After,Color,Color,3,-1,0.0,2,2,1,2
431,559,wab70ec3,Yellow,1.0,2152.0,1,3,4,choice,After,Color,Color,2,1,-2.0,2,2,0,1
432,560,wab70ec3,Green,1.0,2162.0,1,1,5,choice,Before,Color,Color,3,1,1.0,4,4,2,3
433,561,wab70ec3,Blue,0.0,5683.0,0,2,5,choice,Before,Color,Color,1,1,1.0,4,4,1,1
434,562,wab70ec3,Red,1.0,4431.0,0,3,5,choice,Before,Color,Color,2,-2,-1.0,4,4,1,2
435,563,wab70ec3,Scene,1.0,4832.0,1,1,6,choice,After,Category,Category,2,2,2.0,4,4,2,2
436,564,wab70ec3,Food,1.0,4274.0,0,2,6,choice,After,Category,Category,3,-2,-1.0,4,4,2,2
437,565,wab70ec3,Animal,0.0,1349.0,1,3,6,choice,After,Category,Category,1,-2,-1.0,4,4,0,0
438,566,wab70ec3,Scene,1.0,1588.0,1,1,7,choice,Before,Category,Category,2,1,3.0,1,1,1,3
439,567,wab70ec3,Food,0.0,1557.0,1,2,7,choice,Before,Category,Category,1,-1,-1.0,1,1,0,1
440,568,wab70ec3,Object,1.0,2535.0,1,3,7,choice,Before,Category,Category,3,1,-3.0,1,1,0,0
441,575,w6a59bb5,Object,1.0,3257.0,0,1,1,choice,Before,Category,Category,3,-1,-1.0,5,5,3,3
442,576,w6a59bb5,Food,1.0,2629.0,1,2,1,choice,Before,Category,Category,1,1,1.0,5,5,0,1
443,577,w6a59bb5,Animal,0.0,1493.0,1,3,1,choice,Before,Category,Category,2,-1,-3.0,5,5,2,2
444,578,w6a59bb5,Red,1.0,2079.0,1,1,2,choice,After,Color,Color,3,2,4.0,5,5,2,2
445,579,w6a59bb5,Blue,0.0,1616.0,1,2,2,choice,After,Color,Color,2,-4,-2.0,5,5,2,3
446,580,w6a59bb5,Green,1.0,1037.0,1,3,2,choice,After,Color,Color,1,1,1.0,5,5,1,1
447,581,w6a59bb5,Animal,1.0,1961.0,1,1,3,choice,Before,Category,Category,2,1,1.0,6,6,2,2
448,582,w6a59bb5,Scene,1.0,4327.0,1,2,3,choice,Before,Category,Category,1,1,-1.0,6,6,1,1
449,583,w6a59bb5,Food,1.0,3025.0,0,3,3,choice,Before,Category,Category,3,-1,3.0,6,6,3,3
450,584,w6a59bb5,Yellow,1.0,2847.0,0,1,4,choice,After,Color,Color,3,-2,0.0,4,4,2,2
451,585,w6a59bb5,Blue,1.0,1850.0,1,2,4,choice,After,Color,Color,2,4,0.0,4,4,1,1
452,586,w6a59bb5,Red,1.0,2021.0,0,3,4,choice,After,Color,Color,1,-1,-1.0,4,4,1,1
453,587,w6a59bb5,Scene,0.0,3005.0,0,1,5,choice,Before,Category,Category,1,2,1.0,5,5,1,1
454,588,w6a59bb5,Animal,1.0,2457.0,1,2,5,choice,Before,Category,Category,2,3,3.0,5,5,1,1
455,589,w6a59bb5,Food,1.0,2162.0,0,3,5,choice,Before,Category,Category,3,-4,1.0,5,5,3,3
456,590,w6a59bb5,Object,0.0,1748.0,1,1,6,choice,After,Category,Category,1,-1,-1.0,6,6,1,1
457,591,w6a59bb5,Food,1.0,1389.0,1,2,6,choice,After,Category,Category,3,2,-1.0,6,6,3,3
458,592,w6a59bb5,Scene,1.0,863.0,1,3,6,choice,After,Category,Category,2,1,1.0,6,6,2,2
459,593,w6a59bb5,Red,0.0,2766.0,0,1,7,choice,Before,Color,Color,3,2,-2.0,5,5,3,3
460,594,w6a59bb5,Blue,1.0,1916.0,1,2,7,choice,Before,Color,Color,1,1,1.0,5,5,1,2
461,595,w6a59bb5,Yellow,0.0,1595.0,1,3,7,choice,Before,Color,Color,2,-3,-3.0,5,5,1,1
462,602,w88e738d,Object,,,0,1,1,choice,After,Category,Category,3,-4,-2.0,3,3,1,1
463,603,w88e738d,Animal,0.0,4968.0,0,2,1,choice,After,Category,Category,2,4,3.0,3,3,1,1
464,604,w88e738d,Food,1.0,5805.0,1,3,1,choice,After,Category,Category,1,1,-2.0,3,3,1,2
465,605,w88e738d,Object,0.0,4015.0,1,1,2,choice,Before,Category,Category,1,-1,-1.0,6,6,1,1
466,606,w88e738d,Food,1.0,1617.0,1,2,2,choice,Before,Category,Category,2,3,3.0,6,6,2,2
467,607,w88e738d,Scene,1.0,3730.0,0,3,2,choice,Before,Category,Category,3,-2,-2.0,6,6,3,3
468,608,w88e738d,Red,0.0,3096.0,0,1,3,choice,After,Color,Color,2,1,-2.0,6,6,2,2
469,609,w88e738d,Blue,1.0,1765.0,1,2,3,choice,After,Color,Color,1,2,2.0,6,6,1,1
470,610,w88e738d,Green,1.0,855.0,0,3,3,choice,After,Color,Color,3,-2,0.0,6,6,3,3
471,611,w88e738d,Scene,1.0,3344.0,1,1,4,choice,Before,Category,Category,2,1,0.0,3,3,1,3
472,612,w88e738d,Object,1.0,4343.0,1,2,4,choice,Before,Category,Category,1,1,1.0,3,3,1,1
473,613,w88e738d,Animal,,,0,3,4,choice,Before,Category,Category,3,-1,2.0,3,3,1,2
474,614,w88e738d,Green,0.0,3083.0,0,1,5,choice,After,Color,Color,3,5,4.0,2,2,1,1
475,615,w88e738d,Blue,1.0,4217.0,0,2,5,choice,After,Color,Color,2,-3,-1.0,2,2,0,1
476,616,w88e738d,Yellow,1.0,1752.0,0,3,5,choice,After,Color,Color,1,-1,-1.0,2,2,1,1
477,617,w88e738d,Red,0.0,1780.0,1,1,6,choice,Before,Color,Color,3,-4,-5.0,6,6,3,3
478,618,w88e738d,Yellow,0.0,1383.0,0,2,6,choice,Before,Color,Color,1,1,1.0,6,6,1,1
479,619,w88e738d,Blue,1.0,946.0,1,3,6,choice,Before,Color,Color,2,4,3.0,6,6,2,2
480,620,w88e738d,Scene,0.0,3210.0,1,1,7,choice,After,Category,Category,1,-2,-2.0,5,5,1,1
481,621,w88e738d,Animal,1.0,1271.0,1,2,7,choice,After,Category,Category,2,4,3.0,5,5,2,2
482,622,w88e738d,Object,0.0,2895.0,1,3,7,choice,After,Category,Category,3,-1,-1.0,5,5,2,3
483,643,w7a2af65,Scene,1.0,4670.0,0,1,1,choice,After,Category,Category,3,-3,0.0,5,5,2,2
484,644,w7a2af65,Food,1.0,3054.0,0,2,1,choice,After,Category,Category,1,-2,-2.0,5,5,1,1
485,645,w7a2af65,Animal,0.0,1262.0,0,3,1,choice,After,Category,Category,2,3,3.0,5,5,2,2
486,646,w7a2af65,Food,1.0,4956.0,1,1,2,choice,Before,Category,Category,3,2,2.0,6,6,3,3
487,647,w7a2af65,Scene,1.0,3156.0,0,2,2,choice,Before,Category,Category,2,-1,0.0,6,6,2,2
488,648,w7a2af65,Object,0.0,3787.0,1,3,2,choice,Before,Category,Category,1,-1,-1.0,6,6,1,1
489,649,w7a2af65,Green,,,0,1,3,choice,After,Color,Color,1,-1,1.0,2,2,1,1
490,650,w7a2af65,Yellow,0.0,2248.0,0,2,3,choice,After,Color,Color,3,3,0.0,2,2,1,1
491,651,w7a2af65,Blue,0.0,3586.0,1,3,3,choice,After,Color,Color,2,-1,0.0,2,2,0,0
492,652,w7a2af65,Animal,1.0,2169.0,0,1,4,choice,Before,Category,Category,2,-4,-3.0,1,1,0,1
493,653,w7a2af65,Scene,0.0,2098.0,1,2,4,choice,Before,Category,Category,1,-1,-1.0,1,1,0,0
494,654,w7a2af65,Object,0.0,1170.0,0,3,4,choice,Before,Category,Category,3,4,2.0,1,1,1,2
495,655,w7a2af65,Red,1.0,1261.0,1,1,5,choice,After,Color,Color,2,3,0.0,4,4,1,1
496,656,w7a2af65,Green,1.0,809.0,0,2,5,choice,After,Color,Color,3,-1,1.0,4,4,2,2
497,657,w7a2af65,Yellow,0.0,595.0,1,3,5,choice,After,Color,Color,1,-2,-1.0,4,4,1,2
498,658,w7a2af65,Green,1.0,2096.0,0,1,7,choice,After,Color,Color,3,-3,1.0,2,2,2,2
499,659,w7a2af65,Yellow,0.0,2057.0,0,2,7,choice,After,Color,Color,1,2,-2.0,2,2,0,0
500,660,w7a2af65,Blue,1.0,1535.0,0,3,7,choice,After,Color,Color,2,-1,3.0,2,2,0,0
501,661,w299c268,Scene,0.0,4259.0,1,1,1,choice,After,Category,Category,3,-2,-2.0,6,6,3,3
502,662,w299c268,Animal,1.0,3547.0,0,2,1,choice,After,Category,Category,2,-1,-1.0,6,6,2,2
503,663,w299c268,Food,1.0,4556.0,1,3,1,choice,After,Category,Category,1,2,2.0,6,6,1,1
504,664,w299c268,Scene,1.0,2577.0,1,1,2,choice,Before,Category,Category,2,3,3.0,6,6,2,2
505,665,w299c268,Food,1.0,6257.0,0,2,2,choice,Before,Category,Category,3,-2,2.0,6,6,3,3
506,666,w299c268,Object,0.0,2563.0,1,3,2,choice,Before,Category,Category,1,-1,-1.0,6,6,1,1
507,667,w299c268,Object,0.0,3861.0,1,1,3,choice,After,Category,Category,2,-3,-3.0,6,6,2,2
508,668,w299c268,Food,1.0,3590.0,1,2,3,choice,After,Category,Category,1,2,2.0,6,6,1,1
509,669,w299c268,Animal,0.0,6569.0,0,3,3,choice,After,Category,Category,3,1,-1.0,6,6,3,3
510,670,w299c268,Blue,1.0,5681.0,1,1,4,choice,Before,Color,Color,1,1,1.0,4,4,1,1
511,671,w299c268,Green,1.0,5886.0,1,2,4,choice,Before,Color,Color,2,1,3.0,4,4,1,2
512,672,w299c268,Red,0.0,1852.0,1,3,4,choice,Before,Color,Color,3,-2,-4.0,4,4,2,2
513,673,w299c268,Yellow,1.0,3316.0,1,1,5,choice,After,Color,Color,1,2,1.0,6,6,1,1
514,674,w299c268,Red,0.0,4009.0,0,2,5,choice,After,Color,Color,2,1,-3.0,6,6,2,2
515,675,w299c268,Green,0.0,763.0,1,3,5,choice,After,Color,Color,3,-1,-1.0,6,6,3,3
516,676,w299c268,Animal,1.0,4376.0,1,1,6,choice,Before,Category,Category,2,1,3.0,5,5,2,3
517,677,w299c268,Scene,1.0,1309.0,1,2,6,choice,Before,Category,Category,1,1,1.0,5,5,1,1
518,678,w299c268,Food,0.0,937.0,1,3,6,choice,Before,Category,Category,3,-3,-2.0,5,5,2,2
519,679,w299c268,Blue,1.0,5704.0,0,1,7,choice,After,Color,Color,2,-1,-1.0,6,6,2,2
520,680,w299c268,Green,0.0,4340.0,0,2,7,choice,After,Color,Color,3,2,2.0,6,6,3,3
521,681,w299c268,Yellow,1.0,5656.0,0,3,7,choice,After,Color,Color,1,-2,-2.0,6,6,1,1
522,688,w9a0bd8d,Yellow,0.0,4776.0,1,1,1,choice,After,Color,Color,2,-1,-3.0,5,5,2,2
523,689,w9a0bd8d,Red,1.0,5373.0,0,2,1,choice,After,Color,Color,1,-1,2.0,5,5,1,1
524,690,w9a0bd8d,Blue,1.0,616.0,1,3,1,choice,After,Color,Color,3,3,3.0,5,5,2,2
525,691,w9a0bd8d,Food,,,0,1,2,choice,Before,Category,Category,3,2,2.0,5,5,2,3
526,692,w9a0bd8d,Scene,1.0,3027.0,0,2,2,choice,Before,Category,Category,2,-3,0.0,5,5,2,2
527,693,w9a0bd8d,Object,1.0,1202.0,1,3,2,choice,Before,Category,Category,1,2,2.0,5,5,1,1
528,694,w9a0bd8d,Food,1.0,916.0,0,1,3,choice,After,Category,Category,1,-2,-2.0,4,4,0,0
529,695,w9a0bd8d,Object,0.0,2865.0,1,2,3,choice,After,Category,Category,2,-1,-1.0,4,4,2,2
530,696,w9a0bd8d,Animal,1.0,2185.0,1,3,3,choice,After,Category,Category,3,1,4.0,4,4,2,2
531,697,w9a0bd8d,Blue,1.0,1315.0,1,1,4,choice,Before,Color,Color,1,1,1.0,6,6,1,1
532,698,w9a0bd8d,Red,1.0,1144.0,1,2,4,choice,Before,Color,Color,3,1,1.0,6,6,3,3
533,699,w9a0bd8d,Green,0.0,449.0,1,3,4,choice,Before,Color,Color,2,-3,-2.0,6,6,2,2
534,700,w9a0bd8d,Animal,0.0,2225.0,1,1,5,choice,After,Category,Category,1,-1,-2.0,5,5,1,1
535,701,w9a0bd8d,Scene,1.0,846.0,1,2,5,choice,After,Category,Category,2,3,0.0,5,5,1,1
536,702,w9a0bd8d,Object,1.0,2151.0,0,3,5,choice,After,Category,Category,3,-3,-1.0,5,5,3,4
537,703,w9a0bd8d,Blue,1.0,909.0,1,1,6,choice,Before,Color,Color,3,2,2.0,5,5,2,2
538,704,w9a0bd8d,Red,0.0,540.0,1,2,6,choice,Before,Color,Color,2,-1,-3.0,5,5,2,3
539,705,w9a0bd8d,Green,0.0,946.0,1,3,6,choice,Before,Color,Color,1,-2,-1.0,5,5,1,1
540,706,w9a0bd8d,Object,1.0,1468.0,1,1,7,choice,After,Category,Category,2,1,1.0,3,3,1,1
541,707,w9a0bd8d,Food,1.0,1602.0,0,2,7,choice,After,Category,Category,1,-1,2.0,3,3,1,1
542,708,w9a0bd8d,Scene,1.0,1758.0,1,3,7,choice,After,Category,Category,3,1,1.0,3,3,1,2
543,715,w1d9c2fb,Animal,,,0,1,1,choice,After,Category,Category,2,2,-1.0,1,1,1,2
544,716,w1d9c2fb,Food,1.0,4140.0,0,2,1,choice,After,Category,Category,1,-2,1.0,1,1,0,1
545,717,w1d9c2fb,Object,0.0,3052.0,1,3,1,choice,After,Category,Category,3,-2,-2.0,1,1,0,1
546,718,w1d9c2fb,Blue,1.0,5289.0,0,1,2,choice,Before,Color,Color,2,-1,0.0,6,6,2,2
547,719,w1d9c2fb,Red,1.0,837.0,1,2,2,choice,Before,Color,Color,3,3,2.0,6,6,3,3
548,720,w1d9c2fb,Green,0.0,2605.0,1,3,2,choice,Before,Color,Color,1,-1,-2.0,6,6,1,1
549,721,w1d9c2fb,Yellow,0.0,4072.0,1,1,3,choice,After,Color,Color,3,-2,-4.0,6,6,3,3
550,722,w1d9c2fb,Red,1.0,2973.0,1,2,3,choice,After,Color,Color,2,3,2.0,6,6,2,2
551,723,w1d9c2fb,Green,1.0,5509.0,0,3,3,choice,After,Color,Color,1,-1,1.0,6,6,1,1
552,724,w1d9c2fb,Animal,1.0,3726.0,0,1,4,choice,Before,Category,Category,3,-1,-4.0,6,6,3,3
553,725,w1d9c2fb,Object,1.0,2574.0,0,2,4,choice,Before,Category,Category,1,-1,1.0,6,6,1,1
554,726,w1d9c2fb,Scene,0.0,3300.0,0,3,4,choice,Before,Category,Category,2,3,0.0,6,6,2,2
555,727,w1d9c2fb,Green,1.0,5270.0,1,1,5,choice,After,Color,Color,3,1,-2.0,6,6,3,3
556,728,w1d9c2fb,Blue,1.0,2653.0,1,2,5,choice,After,Color,Color,1,2,1.0,6,6,1,1
557,729,w1d9c2fb,Yellow,0.0,1402.0,1,3,5,choice,After,Color,Color,2,-3,-2.0,6,6,2,2
558,730,w1d9c2fb,Food,1.0,1613.0,1,1,6,choice,Before,Category,Category,3,1,-2.0,5,5,2,2
559,731,w1d9c2fb,Scene,0.0,2106.0,1,2,6,choice,Before,Category,Category,2,-3,-3.0,5,5,2,2
560,732,w1d9c2fb,Object,0.0,3094.0,0,3,6,choice,Before,Category,Category,1,2,2.0,5,5,1,1
561,733,w1d9c2fb,Red,0.0,4681.0,1,1,7,choice,After,Color,Color,3,-1,-2.0,5,5,3,4
562,734,w1d9c2fb,Blue,0.0,3365.0,1,2,7,choice,After,Color,Color,1,-2,-1.0,5,5,1,1
563,735,w1d9c2fb,Yellow,1.0,658.0,1,3,7,choice,After,Color,Color,2,2,2.0,5,5,1,1
564,742,wb361f36,Yellow,0.0,2060.0,1,1,1,choice,After,Color,Color,2,-3,-4.0,4,4,2,2
565,743,wb361f36,Blue,0.0,2282.0,0,2,1,choice,After,Color,Color,3,2,-1.0,4,4,2,2
566,744,wb361f36,Red,1.0,857.0,1,3,1,choice,After,Color,Color,1,2,2.0,4,4,0,1
567,745,wb361f36,Green,0.0,2690.0,0,1,2,choice,Before,Color,Color,2,4,0.0,4,4,1,1
568,746,wb361f36,Red,1.0,888.0,0,2,2,choice,Before,Color,Color,1,-2,2.0,4,4,1,1
569,747,wb361f36,Yellow,0.0,770.0,1,3,2,choice,Before,Color,Color,3,-3,-2.0,4,4,2,2
570,748,wb361f36,Yellow,1.0,955.0,1,1,3,choice,After,Color,Color,3,2,2.0,4,4,3,3
571,749,wb361f36,Green,0.0,1128.0,1,2,3,choice,After,Color,Color,1,-1,-1.0,4,4,0,0
572,750,wb361f36,Blue,1.0,730.0,1,3,3,choice,After,Color,Color,2,1,-2.0,4,4,1,1
573,751,wb361f36,Red,0.0,858.0,1,1,4,choice,Before,Color,Color,3,-2,0.0,4,4,2,3
574,752,wb361f36,Blue,1.0,766.0,1,2,4,choice,Before,Color,Color,1,1,-1.0,4,4,1,2
575,753,wb361f36,Green,0.0,661.0,0,3,4,choice,Before,Color,Color,2,1,1.0,4,4,1,1
576,754,wb361f36,Animal,1.0,755.0,1,1,5,choice,After,Category,Category,1,1,1.0,4,4,1,1
577,755,wb361f36,Scene,0.0,1270.0,1,2,5,choice,After,Category,Category,2,-1,-4.0,4,4,2,3
578,756,wb361f36,Object,0.0,1367.0,1,3,5,choice,After,Category,Category,3,-1,0.0,4,4,1,2
579,757,wb361f36,Animal,0.0,1726.0,1,1,6,choice,Before,Category,Category,2,-2,-2.0,3,3,1,2
580,758,wb361f36,Scene,1.0,788.0,1,2,6,choice,Before,Category,Category,1,1,1.0,3,3,1,2
581,759,wb361f36,Food,1.0,1122.0,1,3,6,choice,Before,Category,Category,3,2,6.0,3,3,1,1
582,760,wb361f36,Object,0.0,2069.0,1,1,7,choice,After,Category,Category,2,-1,-3.0,4,4,1,2
583,761,wb361f36,Food,0.0,1132.0,1,2,7,choice,After,Category,Category,1,-1,1.0,4,4,1,2
584,762,wb361f36,Scene,1.0,684.0,1,3,7,choice,After,Category,Category,3,2,5.0,4,4,2,2
585,784,w9b9abef,Food,,,0,1,1,choice,Before,Category,Category,1,2,2.0,6,6,1,1
586,785,w9b9abef,Scene,1.0,5426.0,0,2,1,choice,Before,Category,Category,3,-2,-2.0,6,6,3,3
587,786,w9b9abef,Animal,1.0,4487.0,1,3,1,choice,Before,Category,Category,2,1,1.0,6,6,2,2
588,787,w9b9abef,Object,1.0,5272.0,1,1,2,choice,After,Category,Category,1,1,1.0,5,5,1,1
589,788,w9b9abef,Food,1.0,4799.0,1,2,2,choice,After,Category,Category,3,1,1.0,5,5,2,2
590,789,w9b9abef,Scene,0.0,2520.0,1,3,2,choice,After,Category,Category,2,-3,-3.0,5,5,2,3
591,790,w9b9abef,Green,1.0,5147.0,1,1,3,choice,Before,Color,Color,1,1,1.0,4,4,1,1
592,791,w9b9abef,Yellow,0.0,915.0,1,2,3,choice,Before,Color,Color,3,-5,-1.0,4,4,2,3
593,792,w9b9abef,Blue,1.0,2237.0,1,3,3,choice,Before,Color,Color,2,3,-1.0,4,4,1,2
594,793,w9b9abef,Scene,1.0,2936.0,1,1,4,choice,After,Category,Category,1,2,2.0,5,5,1,1
595,794,w9b9abef,Animal,0.0,4197.0,1,2,4,choice,After,Category,Category,2,-4,-1.0,5,5,2,2
596,795,w9b9abef,Object,1.0,3223.0,1,3,4,choice,After,Category,Category,3,1,0.0,5,5,2,2
597,796,w9b9abef,Red,1.0,3124.0,0,1,5,choice,Before,Color,Color,2,-2,-3.0,5,5,1,1
598,797,w9b9abef,Green,0.0,2046.0,0,2,5,choice,Before,Color,Color,3,2,-1.0,5,5,3,3
599,798,w9b9abef,Yellow,1.0,881.0,1,3,5,choice,Before,Color,Color,1,1,1.0,5,5,1,1
600,799,w9b9abef,Red,1.0,4077.0,1,1,6,choice,After,Color,Color,2,1,3.0,6,6,2,2
601,800,w9b9abef,Green,1.0,5339.0,1,2,6,choice,After,Color,Color,1,1,1.0,6,6,1,1
602,801,w9b9abef,Blue,0.0,3634.0,1,3,6,choice,After,Color,Color,3,-2,4.0,6,6,3,3
603,802,w9b9abef,Blue,0.0,3406.0,1,1,7,choice,Before,Color,Color,2,-1,-4.0,3,3,1,2
604,803,w9b9abef,Green,1.0,4742.0,1,2,7,choice,Before,Color,Color,3,1,0.0,3,3,1,1
605,804,w9b9abef,Yellow,0.0,4380.0,1,3,7,choice,Before,Color,Color,1,-2,-1.0,3,3,1,2
606,811,w3c1c747,Scene,1.0,2790.0,1,1,1,choice,Before,Category,Category,2,3,2.0,4,4,1,2
607,812,w3c1c747,Food,1.0,1642.0,0,2,1,choice,Before,Category,Category,1,-2,-1.0,4,4,1,1
608,813,w3c1c747,Animal,1.0,3238.0,0,3,1,choice,Before,Category,Category,3,-1,3.0,4,4,2,2
609,814,w3c1c747,Scene,0.0,1966.0,1,1,3,choice,Before,Category,Category,3,-3,-1.0,3,3,2,2
610,815,w3c1c747,Animal,0.0,2768.0,1,2,3,choice,Before,Category,Category,2,-1,2.0,3,3,1,2
611,816,w3c1c747,Object,1.0,1358.0,1,3,3,choice,Before,Category,Category,1,2,2.0,3,3,0,1
612,817,w3c1c747,Animal,1.0,2093.0,0,1,4,choice,After,Category,Category,1,-2,-1.0,1,1,0,2
613,818,w3c1c747,Object,0.0,3490.0,0,2,4,choice,After,Category,Category,2,1,-1.0,1,1,1,2
614,819,w3c1c747,Food,1.0,1625.0,1,3,4,choice,After,Category,Category,3,1,1.0,1,1,0,0
615,820,w3c1c747,Green,1.0,1436.0,0,1,5,choice,Before,Color,Color,3,-1,-4.0,4,4,1,1
616,821,w3c1c747,Red,0.0,1654.0,0,2,5,choice,Before,Color,Color,2,3,2.0,4,4,2,2
617,822,w3c1c747,Blue,0.0,1146.0,1,3,5,choice,Before,Color,Color,1,-2,1.0,4,4,1,2
618,823,w3c1c747,Animal,0.0,3015.0,0,1,6,choice,After,Category,Category,1,2,-2.0,4,4,1,2
619,824,w3c1c747,Food,0.0,2857.0,0,2,6,choice,After,Category,Category,3,3,0.0,4,4,1,1
620,825,w3c1c747,Scene,1.0,1132.0,0,3,6,choice,After,Category,Category,2,-3,2.0,4,4,2,2
621,826,w3c1c747,Yellow,0.0,1257.0,1,1,7,choice,Before,Color,Color,2,-2,-3.0,3,3,1,1
622,827,w3c1c747,Blue,0.0,2849.0,0,2,7,choice,Before,Color,Color,3,4,-2.0,3,3,2,2
623,828,w3c1c747,Green,1.0,682.0,0,3,7,choice,Before,Color,Color,1,-2,-1.0,3,3,0,2
624,835,w06d51ce,Animal,,,0,1,1,choice,Before,Category,Category,2,-1,1.0,1,1,0,1
625,836,w06d51ce,Object,1.0,2763.0,0,2,1,choice,Before,Category,Category,3,-2,-2.0,1,1,1,1
626,837,w06d51ce,Food,1.0,5118.0,1,3,1,choice,Before,Category,Category,1,2,-2.0,1,1,0,1
627,838,w06d51ce,Object,1.0,6534.0,1,1,2,choice,After,Category,Category,1,2,2.0,4,4,1,1
628,839,w06d51ce,Scene,,,0,2,2,choice,After,Category,Category,3,-1,-5.0,4,4,2,2
629,840,w06d51ce,Food,1.0,2216.0,0,3,2,choice,After,Category,Category,2,-1,2.0,4,4,1,1
630,841,w06d51ce,Green,1.0,1777.0,0,1,3,choice,Before,Color,Color,3,-2,2.0,3,3,2,2
631,842,w06d51ce,Blue,0.0,3273.0,1,2,3,choice,Before,Color,Color,1,-2,-1.0,3,3,0,0
632,843,w06d51ce,Red,1.0,4242.0,1,3,3,choice,Before,Color,Color,2,3,1.0,3,3,1,1
633,844,w06d51ce,Animal,,,0,1,4,choice,After,Category,Category,3,2,5.0,5,5,2,2
634,845,w06d51ce,Object,1.0,1751.0,1,2,4,choice,After,Category,Category,1,2,2.0,5,5,1,1
635,846,w06d51ce,Scene,0.0,1606.0,1,3,4,choice,After,Category,Category,2,-2,-3.0,5,5,2,2
636,847,w06d51ce,Green,0.0,2955.0,1,1,5,choice,Before,Color,Color,3,-2,-2.0,4,4,1,1
637,848,w06d51ce,Blue,0.0,2567.0,1,2,5,choice,Before,Color,Color,2,-1,-4.0,4,4,2,2
638,849,w06d51ce,Yellow,1.0,936.0,1,3,5,choice,Before,Color,Color,1,2,1.0,4,4,1,2
639,850,w06d51ce,Red,1.0,3628.0,0,1,6,choice,After,Color,Color,3,-2,4.0,1,1,0,0
640,851,w06d51ce,Yellow,0.0,2113.0,0,2,6,choice,After,Color,Color,1,1,-1.0,1,1,0,0
641,852,w06d51ce,Blue,1.0,759.0,0,3,6,choice,After,Color,Color,2,-1,-1.0,1,1,1,1
642,853,w06d51ce,Green,1.0,3104.0,1,1,7,choice,Before,Color,Color,3,2,3.0,4,4,2,2
643,854,w06d51ce,Blue,1.0,1036.0,0,2,7,choice,Before,Color,Color,2,-2,0.0,4,4,2,2
644,855,w06d51ce,Red,0.0,937.0,0,3,7,choice,Before,Color,Color,1,2,-1.0,4,4,0,2
645,862,w83687da,Yellow,1.0,2160.0,1,1,1,choice,Before,Color,Color,1,2,0.0,4,4,1,2
646,863,w83687da,Blue,0.0,847.0,1,2,1,choice,Before,Color,Color,3,-1,-3.0,4,4,1,1
647,864,w83687da,Green,1.0,573.0,0,3,1,choice,Before,Color,Color,2,-1,-2.0,4,4,2,2
648,865,w83687da,Green,0.0,2087.0,1,1,2,choice,After,Color,Color,1,-2,-2.0,5,5,1,1
649,866,w83687da,Blue,0.0,603.0,0,2,2,choice,After,Color,Color,2,1,-3.0,5,5,2,2
650,867,w83687da,Red,1.0,542.0,1,3,2,choice,After,Color,Color,3,1,-1.0,5,5,2,2
651,868,w83687da,Animal,1.0,994.0,0,1,3,choice,Before,Category,Category,2,-1,3.0,6,6,2,2
652,869,w83687da,Scene,0.0,2535.0,1,2,3,choice,Before,Category,Category,1,-1,-1.0,6,6,1,1
653,870,w83687da,Food,1.0,2760.0,1,3,3,choice,Before,Category,Category,3,2,2.0,6,6,3,3
654,871,w83687da,Scene,1.0,3703.0,1,1,4,choice,After,Category,Category,2,1,1.0,6,6,2,2
655,872,w83687da,Animal,0.0,6742.0,1,2,4,choice,After,Category,Category,3,-1,-2.0,6,6,3,3
656,873,w83687da,Object,1.0,5532.0,1,3,4,choice,After,Category,Category,1,2,2.0,6,6,1,1
657,874,w83687da,Yellow,1.0,5489.0,1,1,5,choice,Before,Color,Color,2,1,3.0,5,5,2,2
658,875,w83687da,Blue,1.0,1509.0,1,2,5,choice,Before,Color,Color,1,1,1.0,5,5,1,2
659,876,w83687da,Green,0.0,368.0,1,3,5,choice,Before,Color,Color,3,-1,-3.0,5,5,2,2
660,877,w83687da,Scene,,,0,1,6,choice,After,Category,Category,2,-1,-1.0,6,6,2,2
661,878,w83687da,Object,1.0,4645.0,0,2,6,choice,After,Category,Category,1,-2,-2.0,6,6,1,1
662,879,w83687da,Food,1.0,3366.0,1,3,6,choice,After,Category,Category,3,1,1.0,6,6,3,3
663,880,w83687da,Object,0.0,3025.0,1,1,7,choice,Before,Category,Category,2,-2,-2.0,6,6,2,2
664,881,w83687da,Scene,1.0,763.0,1,2,7,choice,Before,Category,Category,3,2,2.0,6,6,3,3
665,882,w83687da,Animal,1.0,2260.0,1,3,7,choice,Before,Category,Category,1,1,1.0,6,6,1,1
666,889,w07271cc,Green,1.0,6553.0,1,1,1,choice,Before,Color,Color,2,1,-2.0,4,4,1,1
667,890,w07271cc,Red,0.0,4594.0,1,2,1,choice,Before,Color,Color,1,-1,-1.0,4,4,0,2
668,891,w07271cc,Blue,1.0,2056.0,1,3,1,choice,Before,Color,Color,3,1,1.0,4,4,3,3
669,892,w07271cc,Blue,0.0,3364.0,1,1,2,choice,After,Color,Color,1,-1,-1.0,5,5,1,2
670,893,w07271cc,Yellow,0.0,2583.0,1,2,2,choice,After,Color,Color,3,-2,-1.0,5,5,2,2
671,894,w07271cc,Green,1.0,1998.0,1,3,2,choice,After,Color,Color,2,4,4.0,5,5,2,2
672,895,w07271cc,Animal,1.0,3216.0,1,1,3,choice,Before,Category,Category,2,1,-2.0,2,2,1,2
673,896,w07271cc,Scene,1.0,2419.0,1,2,3,choice,Before,Category,Category,1,1,1.0,2,2,0,2
674,897,w07271cc,Object,0.0,2789.0,1,3,3,choice,Before,Category,Category,3,-1,-1.0,2,2,1,2
675,898,w07271cc,Yellow,1.0,4361.0,1,1,4,choice,After,Color,Color,2,2,2.0,5,5,2,2
676,899,w07271cc,Red,0.0,3392.0,1,2,4,choice,After,Color,Color,1,-1,-1.0,5,5,1,1
677,900,w07271cc,Blue,0.0,5458.0,1,3,4,choice,After,Color,Color,3,-2,-1.0,5,5,2,2
678,901,w07271cc,Object,1.0,5789.0,1,1,5,choice,Before,Category,Category,1,1,1.0,5,5,1,1
679,902,w07271cc,Scene,0.0,2912.0,1,2,5,choice,Before,Category,Category,3,-1,-2.0,5,5,2,2
680,903,w07271cc,Animal,0.0,2000.0,1,3,5,choice,Before,Category,Category,2,-1,2.0,5,5,2,3
681,904,w07271cc,Food,0.0,3297.0,1,1,6,choice,After,Category,Category,3,-1,1.0,5,5,2,2
682,905,w07271cc,Animal,1.0,2547.0,1,2,6,choice,After,Category,Category,2,2,2.0,5,5,2,2
683,906,w07271cc,Scene,0.0,1980.0,1,3,6,choice,After,Category,Category,1,-1,-1.0,5,5,1,1
684,907,w07271cc,Food,0.0,3234.0,1,1,7,choice,Before,Category,Category,2,-3,-2.0,4,4,1,2
685,908,w07271cc,Object,1.0,4620.0,1,2,7,choice,Before,Category,Category,1,1,1.0,4,4,0,0
686,909,w07271cc,Scene,1.0,7402.0,1,3,7,choice,Before,Category,Category,3,3,3.0,4,4,3,3
687,916,w9b641f6,Food,,,0,1,1,choice,After,Category,Category,1,-2,-1.0,4,4,1,1
688,917,w9b641f6,Animal,1.0,3683.0,1,2,1,choice,After,Category,Category,2,2,3.0,4,4,1,1
689,918,w9b641f6,Object,0.0,4763.0,1,3,1,choice,After,Category,Category,3,-2,-3.0,4,4,2,3
690,919,w9b641f6,Green,0.0,3669.0,1,1,2,choice,Before,Color,Color,1,-2,-1.0,6,6,1,1
691,920,w9b641f6,Yellow,1.0,2633.0,1,2,2,choice,Before,Color,Color,2,1,0.0,6,6,2,2
692,921,w9b641f6,Blue,1.0,2639.0,1,3,2,choice,Before,Color,Color,3,2,2.0,6,6,3,3
693,922,w9b641f6,Scene,0.0,5639.0,1,1,3,choice,After,Category,Category,2,-3,-3.0,5,5,2,2
694,923,w9b641f6,Food,1.0,1653.0,1,2,3,choice,After,Category,Category,3,3,5.0,5,5,2,2
695,924,w9b641f6,Animal,1.0,2899.0,1,3,3,choice,After,Category,Category,1,2,2.0,5,5,1,1
696,925,w9b641f6,Yellow,0.0,4405.0,0,1,4,choice,Before,Color,Color,3,3,0.0,4,4,2,2
697,926,w9b641f6,Blue,1.0,2260.0,1,2,4,choice,Before,Color,Color,2,1,3.0,4,4,1,2
698,927,w9b641f6,Red,0.0,1631.0,1,3,4,choice,Before,Color,Color,1,-1,-2.0,4,4,1,1
699,928,w9b641f6,Animal,,,0,1,5,choice,After,Category,Category,2,-3,3.0,3,3,0,0
700,929,w9b641f6,Object,0.0,2075.0,0,2,5,choice,After,Category,Category,3,4,-2.0,3,3,2,2
701,930,w9b641f6,Food,0.0,5672.0,1,3,5,choice,After,Category,Category,1,-2,-1.0,3,3,1,1
702,931,w9b641f6,Scene,0.0,2178.0,1,1,6,choice,Before,Category,Category,3,-1,-1.0,3,3,2,2
703,932,w9b641f6,Object,0.0,5615.0,0,2,6,choice,Before,Category,Category,1,2,2.0,3,3,0,0
704,933,w9b641f6,Food,1.0,2157.0,1,3,6,choice,Before,Category,Category,2,1,1.0,3,3,1,2
705,934,w9b641f6,Green,0.0,4244.0,1,1,7,choice,After,Color,Color,3,-1,-2.0,4,4,2,2
706,935,w9b641f6,Red,0.0,3442.0,0,2,7,choice,After,Color,Color,1,2,2.0,4,4,0,0
707,936,w9b641f6,Blue,0.0,4429.0,0,3,7,choice,After,Color,Color,2,1,-3.0,4,4,2,4
708,943,wb85c4ff,Animal,1.0,2854.0,0,1,1,choice,After,Category,Category,2,-3,-3.0,5,5,2,2
709,944,wb85c4ff,Food,1.0,3807.0,0,2,1,choice,After,Category,Category,1,-1,2.0,5,5,1,1
710,945,wb85c4ff,Object,0.0,1201.0,0,3,1,choice,After,Category,Category,3,3,3.0,5,5,2,2
711,946,wb85c4ff,Green,1.0,1468.0,1,1,2,choice,Before,Color,Color,1,2,1.0,4,4,1,1
712,947,wb85c4ff,Yellow,0.0,2035.0,1,2,2,choice,Before,Color,Color,2,-3,-3.0,4,4,1,1
713,948,wb85c4ff,Blue,1.0,2056.0,1,3,2,choice,Before,Color,Color,3,1,3.0,4,4,1,1
714,949,wb85c4ff,Scene,1.0,2255.0,1,1,3,choice,After,Category,Category,2,3,1.0,4,4,0,0
715,950,wb85c4ff,Food,0.0,1298.0,1,2,3,choice,After,Category,Category,3,-1,3.0,4,4,2,2
716,951,wb85c4ff,Animal,1.0,1061.0,0,3,3,choice,After,Category,Category,1,-2,2.0,4,4,1,1
717,952,wb85c4ff,Red,1.0,2542.0,0,1,4,choice,Before,Color,Color,1,-2,-2.0,2,2,1,1
718,953,wb85c4ff,Yellow,1.0,1060.0,1,2,4,choice,Before,Color,Color,3,1,-1.0,2,2,1,1
719,954,wb85c4ff,Blue,0.0,625.0,1,3,4,choice,Before,Color,Color,2,-1,4.0,2,2,0,1
720,955,wb85c4ff,Animal,1.0,828.0,1,1,5,choice,After,Category,Category,2,3,0.0,3,3,1,2
721,956,wb85c4ff,Food,0.0,2472.0,1,2,5,choice,After,Category,Category,1,-1,2.0,3,3,0,1
722,957,wb85c4ff,Object,0.0,2201.0,1,3,5,choice,After,Category,Category,3,-2,-2.0,3,3,2,2
723,958,wb85c4ff,Red,,,0,1,6,choice,Before,Color,Color,3,2,3.0,2,2,1,1
724,959,wb85c4ff,Yellow,1.0,4417.0,0,2,6,choice,Before,Color,Color,1,-1,-1.0,2,2,0,1
725,960,wb85c4ff,Blue,0.0,776.0,0,3,6,choice,Before,Color,Color,2,1,1.0,2,2,1,1
726,961,wb85c4ff,Green,1.0,1102.0,1,1,7,choice,After,Color,Color,3,1,2.0,2,2,2,2
727,962,wb85c4ff,Red,0.0,886.0,1,2,7,choice,After,Color,Color,1,-2,2.0,2,2,0,2
728,963,wb85c4ff,Blue,1.0,1193.0,1,3,7,choice,After,Color,Color,2,1,1.0,2,2,0,1
729,997,w9bde09f,Red,0.0,5411.0,1,1,1,choice,After,Color,Color,2,-1,-1.0,6,6,2,2
730,998,w9bde09f,Yellow,1.0,6633.0,1,2,1,choice,After,Color,Color,3,1,1.0,6,6,3,3
731,999,w9bde09f,Green,1.0,4799.0,0,3,1,choice,After,Color,Color,1,-1,-1.0,6,6,1,1
732,1000,w9bde09f,Blue,0.0,4663.0,1,1,2,choice,Before,Color,Color,3,-2,1.0,4,4,2,2
733,1001,w9bde09f,Yellow,1.0,4979.0,1,2,2,choice,Before,Color,Color,2,1,1.0,4,4,1,2
734,1002,w9bde09f,Green,1.0,2439.0,1,3,2,choice,Before,Color,Color,1,2,2.0,4,4,1,1
735,1003,w9bde09f,Scene,1.0,5142.0,1,1,3,choice,After,Category,Category,2,1,1.0,6,6,2,2
736,1004,w9bde09f,Animal,,,0,2,3,choice,After,Category,Category,1,1,-1.0,6,6,1,1
737,1005,w9bde09f,Food,0.0,4983.0,1,3,3,choice,After,Category,Category,3,-1,3.0,6,6,3,3
738,1006,w9bde09f,Animal,1.0,3202.0,1,1,4,choice,Before,Category,Category,3,3,3.0,5,5,2,2
739,1007,w9bde09f,Object,0.0,3611.0,1,2,4,choice,Before,Category,Category,1,-2,-2.0,5,5,1,1
740,1008,w9bde09f,Scene,0.0,5109.0,1,3,4,choice,Before,Category,Category,2,-1,-1.0,5,5,2,3
741,1009,w9bde09f,Animal,0.0,4704.0,0,1,5,choice,After,Category,Category,2,3,1.0,1,1,1,2
742,1010,w9bde09f,Object,0.0,2190.0,1,2,5,choice,After,Category,Category,3,-1,-1.0,1,1,0,0
743,1011,w9bde09f,Food,1.0,1642.0,0,3,5,choice,After,Category,Category,1,-2,2.0,1,1,0,1
744,1012,w9bde09f,Blue,1.0,4472.0,1,1,6,choice,Before,Color,Color,2,1,-2.0,4,4,1,2
745,1013,w9bde09f,Yellow,0.0,4737.0,1,2,6,choice,Before,Color,Color,1,-2,-1.0,4,4,1,2
746,1014,w9bde09f,Red,1.0,1904.0,1,3,6,choice,Before,Color,Color,3,2,-1.0,4,4,2,2
747,1015,w9bde09f,Scene,1.0,4129.0,1,1,7,choice,After,Category,Category,1,2,2.0,4,4,1,1
748,1016,w9bde09f,Object,0.0,4371.0,0,2,7,choice,After,Category,Category,3,2,2.0,4,4,1,1
749,1017,w9bde09f,Animal,0.0,5558.0,1,3,7,choice,After,Category,Category,2,-4,-3.0,4,4,2,2
750,1024,w249e8ce,Food,1.0,3893.0,0,1,1,choice,After,Category,Category,1,-2,1.0,5,5,1,1
751,1025,w249e8ce,Animal,1.0,1152.0,1,2,1,choice,After,Category,Category,2,2,3.0,5,5,0,1
752,1026,w249e8ce,Scene,1.0,659.0,0,3,1,choice,After,Category,Category,3,-1,3.0,5,5,1,1
753,1027,w249e8ce,Scene,,,0,1,2,choice,Before,Category,Category,2,-1,1.0,3,3,1,2
754,1028,w249e8ce,Object,0.0,2867.0,1,2,2,choice,Before,Category,Category,1,-1,1.0,3,3,0,0
755,1029,w249e8ce,Food,1.0,1673.0,1,3,2,choice,Before,Category,Category,3,1,2.0,3,3,2,3
756,1030,w249e8ce,Yellow,0.0,3951.0,0,1,3,choice,After,Color,Color,3,2,2.0,4,4,3,4
757,1031,w249e8ce,Green,0.0,1738.0,1,2,3,choice,After,Color,Color,1,-1,-1.0,4,4,1,2
758,1032,w249e8ce,Blue,1.0,1968.0,0,3,3,choice,After,Color,Color,2,-1,0.0,4,4,0,0
759,1033,w249e8ce,Object,1.0,5487.0,1,1,4,choice,Before,Category,Category,3,1,4.0,6,6,3,3
760,1034,w249e8ce,Scene,1.0,4076.0,1,2,4,choice,Before,Category,Category,1,2,2.0,6,6,1,1
761,1035,w249e8ce,Animal,0.0,1764.0,1,3,4,choice,Before,Category,Category,2,-4,-2.0,6,6,2,2
762,1036,w249e8ce,Yellow,0.0,1809.0,1,1,5,choice,After,Color,Color,1,-2,-2.0,5,5,1,2
763,1037,w249e8ce,Green,1.0,1664.0,1,2,5,choice,After,Color,Color,3,5,4.0,5,5,3,3
764,1038,w249e8ce,Red,0.0,991.0,1,3,5,choice,After,Color,Color,2,-3,-3.0,5,5,1,1
765,1039,w249e8ce,Green,1.0,1987.0,1,1,6,choice,Before,Color,Color,1,1,1.0,4,4,1,1
766,1040,w249e8ce,Red,0.0,1131.0,0,2,6,choice,Before,Color,Color,2,3,3.0,4,4,1,3
767,1041,w249e8ce,Blue,0.0,800.0,1,3,6,choice,Before,Color,Color,3,-5,-3.0,4,4,2,2
768,1042,w249e8ce,Blue,0.0,2923.0,0,1,7,choice,After,Color,Color,2,2,2.0,3,3,1,1
769,1043,w249e8ce,Yellow,1.0,3181.0,0,2,7,choice,After,Color,Color,1,-2,-2.0,3,3,0,0
770,1044,w249e8ce,Green,1.0,1490.0,0,3,7,choice,After,Color,Color,3,-1,3.0,3,3,2,2
771,1051,wa1909e0,Blue,0.0,1873.0,0,1,1,choice,After,Color,Color,3,2,-2.0,5,5,2,2
772,1052,wa1909e0,Red,1.0,935.0,1,2,1,choice,After,Color,Color,1,2,2.0,5,5,1,1
773,1053,wa1909e0,Yellow,0.0,497.0,1,3,1,choice,After,Color,Color,2,-3,-3.0,5,5,2,3
774,1054,wa1909e0,Scene,0.0,1712.0,1,1,2,choice,Before,Category,Category,2,-1,-1.0,3,3,2,2
775,1055,wa1909e0,Object,0.0,959.0,1,2,2,choice,Before,Category,Category,1,-2,-2.0,3,3,1,1
776,1056,wa1909e0,Food,1.0,339.0,1,3,2,choice,Before,Category,Category,3,2,2.0,3,3,0,0
777,1057,wa1909e0,Food,1.0,5287.0,1,1,3,choice,After,Category,Category,1,1,1.0,5,5,1,1
778,1058,wa1909e0,Object,1.0,5222.0,1,2,3,choice,After,Category,Category,2,1,1.0,5,5,2,2
779,1059,wa1909e0,Animal,0.0,1311.0,1,3,3,choice,After,Category,Category,3,-1,-4.0,5,5,2,2
780,1060,wa1909e0,Animal,0.0,2903.0,0,1,4,choice,Before,Category,Category,2,3,3.0,5,5,2,2
781,1061,wa1909e0,Scene,0.0,812.0,1,2,4,choice,Before,Category,Category,1,-2,-1.0,5,5,1,1
782,1062,wa1909e0,Object,0.0,1009.0,1,3,4,choice,Before,Category,Category,3,-3,-2.0,5,5,2,2
783,1063,wa1909e0,Animal,1.0,3090.0,1,1,5,choice,After,Category,Category,1,2,2.0,6,6,1,1
784,1064,wa1909e0,Scene,0.0,3873.0,1,2,5,choice,After,Category,Category,2,-1,-1.0,6,6,2,2
785,1065,wa1909e0,Object,0.0,3278.0,1,3,5,choice,After,Category,Category,3,-1,-1.0,6,6,3,3
786,1066,wa1909e0,Red,0.0,3402.0,1,1,6,choice,Before,Color,Color,2,-3,-3.0,5,5,1,1
787,1067,wa1909e0,Blue,1.0,3506.0,1,2,6,choice,Before,Color,Color,3,2,2.0,5,5,3,3
788,1068,wa1909e0,Green,0.0,1756.0,0,3,6,choice,Before,Color,Color,1,2,2.0,5,5,1,1
789,1069,wa1909e0,Yellow,0.0,1799.0,1,1,7,choice,After,Color,Color,1,-2,-2.0,6,6,1,1
790,1070,wa1909e0,Green,0.0,1133.0,1,2,7,choice,After,Color,Color,3,-2,-2.0,6,6,3,3
791,1071,wa1909e0,Blue,1.0,1016.0,1,3,7,choice,After,Color,Color,2,3,3.0,6,6,2,2
792,1096,w7800d0f,Green,1.0,4382.0,0,1,1,choice,Before,Color,Color,1,-1,-1.0,2,2,0,0
793,1097,w7800d0f,Yellow,1.0,2419.0,1,2,1,choice,Before,Color,Color,3,1,0.0,2,2,0,0
794,1098,w7800d0f,Red,1.0,3821.0,0,3,1,choice,Before,Color,Color,2,-1,2.0,2,2,2,3
795,1099,w7800d0f,Object,1.0,2819.0,0,1,2,choice,After,Category,Category,1,-1,1.0,3,3,0,1
796,1100,w7800d0f,Food,1.0,2062.0,0,2,2,choice,After,Category,Category,2,-1,0.0,3,3,2,2
797,1101,w7800d0f,Scene,1.0,4463.0,1,3,2,choice,After,Category,Category,3,2,2.0,3,3,1,1
798,1102,w7800d0f,Blue,1.0,3681.0,0,1,3,choice,Before,Color,Color,1,-2,-1.0,2,2,1,2
799,1103,w7800d0f,Red,1.0,763.0,0,2,3,choice,Before,Color,Color,2,-2,3.0,2,2,1,3
800,1104,w7800d0f,Green,1.0,1409.0,1,3,3,choice,Before,Color,Color,3,5,5.0,2,2,0,0
801,1105,w7800d0f,Animal,0.0,1162.0,1,1,4,choice,After,Category,Category,3,-2,3.0,1,1,0,1
802,1106,w7800d0f,Scene,1.0,587.0,1,2,4,choice,After,Category,Category,2,3,0.0,1,1,1,2
803,1107,w7800d0f,Object,0.0,790.0,1,3,4,choice,After,Category,Category,1,-2,2.0,1,1,0,0
804,1108,w7800d0f,Food,1.0,1513.0,0,1,5,choice,Before,Category,Category,1,-1,-1.0,1,1,0,1
805,1109,w7800d0f,Object,0.0,958.0,1,2,5,choice,Before,Category,Category,3,-1,2.0,1,1,0,0
806,1110,w7800d0f,Animal,1.0,850.0,1,3,5,choice,Before,Category,Category,2,3,1.0,1,1,1,2
807,1111,w7800d0f,Blue,1.0,1759.0,0,1,6,choice,After,Color,Color,2,-1,0.0,2,2,1,1
808,1112,w7800d0f,Red,0.0,1619.0,1,2,6,choice,After,Color,Color,3,-2,3.0,2,2,1,2
809,1113,w7800d0f,Yellow,1.0,431.0,1,3,6,choice,After,Color,Color,1,2,-1.0,2,2,0,1
810,1114,w7800d0f,Green,1.0,1171.0,1,1,7,choice,Before,Color,Color,3,1,2.0,2,2,1,1
811,1115,w7800d0f,Red,1.0,681.0,0,2,7,choice,Before,Color,Color,1,-1,2.0,2,2,0,2
812,1116,w7800d0f,Blue,0.0,722.0,1,3,7,choice,Before,Color,Color,2,-1,-2.0,2,2,1,2
813,1123,wb966154,Blue,1.0,3538.0,0,1,1,choice,After,Color,Color,2,-1,0.0,5,5,2,2
814,1124,wb966154,Yellow,1.0,3219.0,1,2,1,choice,After,Color,Color,3,2,5.0,5,5,3,3
815,1125,wb966154,Green,0.0,4932.0,1,3,1,choice,After,Color,Color,1,-2,-1.0,5,5,0,0
816,1126,wb966154,Blue,1.0,4552.0,0,1,2,choice,Before,Color,Color,2,-4,-1.0,3,3,1,2
817,1127,wb966154,Green,1.0,2502.0,1,2,2,choice,Before,Color,Color,3,1,-1.0,3,3,1,1
818,1128,wb966154,Red,0.0,2753.0,0,3,2,choice,Before,Color,Color,1,1,1.0,3,3,1,2
819,1129,wb966154,Animal,1.0,3020.0,0,1,3,choice,After,Category,Category,2,-3,0.0,6,6,2,2
820,1130,wb966154,Scene,1.0,1545.0,1,2,3,choice,After,Category,Category,3,2,3.0,6,6,3,3
821,1131,wb966154,Object,0.0,2707.0,0,3,3,choice,After,Category,Category,1,2,-1.0,6,6,1,1
822,1132,wb966154,Yellow,0.0,1685.0,1,1,4,choice,Before,Color,Color,2,-3,-3.0,5,5,2,2
823,1133,wb966154,Red,1.0,1299.0,1,2,4,choice,Before,Color,Color,3,2,5.0,5,5,2,2
824,1134,wb966154,Green,1.0,747.0,1,3,4,choice,Before,Color,Color,1,2,2.0,5,5,1,2
825,1135,wb966154,Animal,1.0,2706.0,1,1,5,choice,After,Category,Category,3,3,2.0,5,5,2,2
826,1136,wb966154,Scene,1.0,1195.0,1,2,5,choice,After,Category,Category,2,1,1.0,5,5,2,2
827,1137,wb966154,Object,0.0,691.0,1,3,5,choice,After,Category,Category,1,-2,-2.0,5,5,1,1
828,1138,wb966154,Scene,0.0,2426.0,0,1,6,choice,Before,Category,Category,2,2,-3.0,4,4,1,1
829,1139,wb966154,Food,1.0,971.0,0,2,6,choice,Before,Category,Category,3,-1,2.0,4,4,2,3
830,1140,wb966154,Animal,0.0,1816.0,1,3,6,choice,Before,Category,Category,1,-1,2.0,4,4,1,2
831,1141,wb966154,Green,0.0,1615.0,1,1,7,choice,After,Color,Color,1,-2,-2.0,5,5,1,1
832,1142,wb966154,Blue,1.0,1508.0,1,2,7,choice,After,Color,Color,3,3,4.0,5,5,2,2
833,1143,wb966154,Yellow,1.0,734.0,1,3,7,choice,After,Color,Color,2,1,3.0,5,5,2,3
834,1150,w4a907eb,Red,1.0,4478.0,1,1,1,choice,After,Color,Color,1,2,2.0,3,3,1,3
835,1151,w4a907eb,Green,0.0,3065.0,1,2,1,choice,After,Color,Color,2,-2,-3.0,3,3,1,2
836,1152,w4a907eb,Blue,1.0,831.0,1,3,1,choice,After,Color,Color,3,1,5.0,3,3,1,1
837,1153,w4a907eb,Scene,0.0,3793.0,1,1,2,choice,Before,Category,Category,3,-1,-5.0,2,2,2,2
838,1154,w4a907eb,Food,1.0,2095.0,1,2,2,choice,Before,Category,Category,2,1,0.0,2,2,0,1
839,1155,w4a907eb,Animal,1.0,2432.0,1,3,2,choice,Before,Category,Category,1,1,2.0,2,2,0,0
840,1156,w4a907eb,Red,1.0,3996.0,0,1,3,choice,After,Color,Color,3,-2,-2.0,2,2,1,1
841,1157,w4a907eb,Yellow,0.0,1101.0,1,2,3,choice,After,Color,Color,1,-2,-2.0,2,2,1,1
842,1158,w4a907eb,Green,0.0,2694.0,0,3,3,choice,After,Color,Color,2,3,4.0,2,2,0,0
843,1159,w4a907eb,Object,1.0,2667.0,1,1,4,choice,Before,Category,Category,3,1,1.0,2,2,1,1
844,1160,w4a907eb,Food,0.0,1550.0,1,2,4,choice,Before,Category,Category,1,-1,2.0,2,2,0,0
845,1161,w4a907eb,Animal,1.0,2904.0,0,3,4,choice,Before,Category,Category,2,-1,-3.0,2,2,1,2
846,1162,w4a907eb,Yellow,0.0,2706.0,0,1,5,choice,After,Color,Color,1,2,-2.0,1,1,0,0
847,1163,w4a907eb,Green,0.0,1897.0,0,2,5,choice,After,Color,Color,3,1,1.0,1,1,1,1
848,1164,w4a907eb,Blue,1.0,1238.0,0,3,5,choice,After,Color,Color,2,-3,2.0,1,1,0,2
849,1165,w4a907eb,Animal,1.0,2344.0,1,1,6,choice,Before,Category,Category,2,2,-1.0,3,3,2,2
850,1166,w4a907eb,Scene,0.0,987.0,1,2,6,choice,Before,Category,Category,1,-2,-2.0,3,3,1,1
851,1167,w4a907eb,Food,1.0,1661.0,0,3,6,choice,Before,Category,Category,3,-3,-1.0,3,3,0,0
852,1168,w4a907eb,Object,1.0,4206.0,0,1,7,choice,After,Category,Category,1,-2,-2.0,1,1,1,3
853,1169,w4a907eb,Scene,0.0,1852.0,0,2,7,choice,After,Category,Category,3,2,2.0,1,1,0,0
854,1170,w4a907eb,Food,1.0,1232.0,0,3,7,choice,After,Category,Category,2,-1,-1.0,1,1,0,0
855,1177,we824ff2,Green,0.0,4488.0,1,1,1,choice,Before,Color,Color,1,-2,-2.0,3,3,1,1
856,1178,we824ff2,Yellow,1.0,2971.0,0,2,1,choice,Before,Color,Color,3,-1,0.0,3,3,1,1
857,1179,we824ff2,Blue,1.0,457.0,1,3,1,choice,Before,Color,Color,2,3,4.0,3,3,1,2
858,1180,we824ff2,Scene,1.0,5124.0,0,1,2,choice,After,Category,Category,1,-2,2.0,5,5,1,1
859,1181,we824ff2,Food,1.0,6441.0,1,2,2,choice,After,Category,Category,3,1,-1.0,5,5,2,2
860,1182,we824ff2,Object,1.0,2416.0,0,3,2,choice,After,Category,Category,2,-1,0.0,5,5,2,2
861,1183,we824ff2,Yellow,1.0,3442.0,1,1,3,choice,Before,Color,Color,2,3,3.0,5,5,2,2
862,1184,we824ff2,Red,0.0,2461.0,1,2,3,choice,Before,Color,Color,3,-3,-5.0,5,5,2,2
863,1185,we824ff2,Blue,1.0,706.0,1,3,3,choice,Before,Color,Color,1,1,2.0,5,5,1,1
864,1186,we824ff2,Object,1.0,2834.0,0,1,4,choice,After,Category,Category,2,-2,-2.0,4,4,2,2
865,1187,we824ff2,Food,0.0,4626.0,0,2,4,choice,After,Category,Category,3,2,2.0,4,4,2,2
866,1188,we824ff2,Animal,1.0,5587.0,1,3,4,choice,After,Category,Category,1,2,2.0,4,4,0,0
867,1189,we824ff2,Blue,1.0,3833.0,1,1,5,choice,Before,Color,Color,1,1,1.0,4,4,1,1
868,1190,we824ff2,Green,0.0,3376.0,1,2,5,choice,Before,Color,Color,3,-2,-2.0,4,4,1,2
869,1191,we824ff2,Red,1.0,362.0,1,3,5,choice,Before,Color,Color,2,1,0.0,4,4,2,2
870,1192,we824ff2,Red,1.0,4478.0,0,1,6,choice,After,Color,Color,2,-1,4.0,5,5,1,1
871,1193,we824ff2,Yellow,1.0,2084.0,1,2,6,choice,After,Color,Color,1,2,-1.0,5,5,1,1
872,1194,we824ff2,Green,1.0,2627.0,0,3,6,choice,After,Color,Color,3,-1,0.0,5,5,3,3
873,1195,we824ff2,Scene,0.0,4933.0,1,1,7,choice,Before,Category,Category,2,-1,-1.0,3,3,1,1
874,1196,we824ff2,Object,1.0,1510.0,1,2,7,choice,Before,Category,Category,3,2,2.0,3,3,2,2
875,1197,we824ff2,Food,0.0,803.0,1,3,7,choice,Before,Category,Category,1,-2,1.0,3,3,0,0
876,1204,we245fc8,Food,1.0,1266.0,1,1,1,choice,Before,Category,Category,3,1,2.0,6,6,3,3
877,1205,we245fc8,Scene,0.0,2274.0,1,2,1,choice,Before,Category,Category,1,-2,-2.0,6,6,1,1
878,1206,we245fc8,Object,1.0,1468.0,1,3,1,choice,Before,Category,Category,2,1,-1.0,6,6,2,2
879,1207,we245fc8,Yellow,1.0,1138.0,1,1,2,choice,After,Color,Color,3,4,5.0,5,5,3,3
880,1208,we245fc8,Blue,1.0,3956.0,0,2,2,choice,After,Color,Color,1,-1,1.0,5,5,0,0
881,1209,we245fc8,Green,0.0,1138.0,1,3,2,choice,After,Color,Color,2,-4,-4.0,5,5,2,3
882,1210,we245fc8,Red,1.0,2273.0,1,1,3,choice,Before,Color,Color,3,1,3.0,5,5,2,2
883,1211,we245fc8,Yellow,1.0,1673.0,0,2,3,choice,Before,Color,Color,1,-2,-2.0,5,5,1,1
884,1212,we245fc8,Green,1.0,642.0,1,3,3,choice,Before,Color,Color,2,1,1.0,5,5,2,3
885,1213,we245fc8,Blue,0.0,1641.0,0,1,4,choice,After,Color,Color,3,5,2.0,3,3,1,2
886,1214,we245fc8,Yellow,0.0,1431.0,1,2,4,choice,After,Color,Color,2,-2,-3.0,3,3,1,2
887,1215,we245fc8,Red,1.0,779.0,0,3,4,choice,After,Color,Color,1,-1,1.0,3,3,1,1
888,1216,we245fc8,Blue,1.0,1050.0,1,1,5,choice,Before,Color,Color,2,3,3.0,6,6,2,2
889,1217,we245fc8,Yellow,0.0,1128.0,1,2,5,choice,Before,Color,Color,1,-2,-1.0,6,6,1,1
890,1218,we245fc8,Green,0.0,998.0,1,3,5,choice,Before,Color,Color,3,-3,-3.0,6,6,3,3
891,1219,we245fc8,Scene,0.0,2110.0,0,1,6,choice,After,Category,Category,1,2,2.0,5,5,1,1
892,1220,we245fc8,Animal,0.0,2104.0,1,2,6,choice,After,Category,Category,2,-1,0.0,5,5,1,1
893,1221,we245fc8,Food,0.0,1185.0,1,3,6,choice,After,Category,Category,3,-3,-3.0,5,5,3,3
894,1222,we245fc8,Food,0.0,2010.0,0,1,7,choice,Before,Category,Category,2,1,-3.0,4,4,1,1
895,1223,we245fc8,Scene,1.0,976.0,1,2,7,choice,Before,Category,Category,3,1,4.0,4,4,2,3
896,1224,we245fc8,Object,0.0,1680.0,1,3,7,choice,Before,Category,Category,1,-1,-1.0,4,4,1,1
897,1231,wc54132b,Yellow,0.0,5910.0,1,1,1,choice,After,Color,Color,3,-1,-2.0,2,2,1,1
898,1232,wc54132b,Blue,1.0,3978.0,0,2,1,choice,After,Color,Color,2,-1,3.0,2,2,1,1
899,1233,wc54132b,Green,1.0,5629.0,1,3,1,choice,After,Color,Color,1,2,2.0,2,2,0,0
900,1234,wc54132b,Food,0.0,3612.0,0,1,2,choice,Before,Category,Category,3,2,2.0,5,5,3,4
901,1235,wc54132b,Scene,1.0,1943.0,1,2,2,choice,Before,Category,Category,1,2,2.0,5,5,1,1
902,1236,wc54132b,Object,0.0,3332.0,1,3,2,choice,Before,Category,Category,2,-2,-2.0,5,5,1,1
903,1237,wc54132b,Scene,0.0,1709.0,1,1,3,choice,After,Category,Category,3,-1,-1.0,3,3,2,2
904,1238,wc54132b,Object,1.0,3115.0,1,2,3,choice,After,Category,Category,1,2,1.0,3,3,0,1
905,1239,wc54132b,Animal,1.0,2181.0,1,3,3,choice,After,Category,Category,2,1,1.0,3,3,1,1
906,1240,wc54132b,Yellow,1.0,5781.0,1,1,4,choice,Before,Color,Color,2,1,1.0,4,4,2,2
907,1241,wc54132b,Green,0.0,5418.0,1,2,4,choice,Before,Color,Color,1,-2,-2.0,4,4,1,1
908,1242,wc54132b,Red,1.0,2341.0,1,3,4,choice,Before,Color,Color,3,2,2.0,4,4,1,1
909,1243,wc54132b,Green,1.0,2772.0,1,1,5,choice,After,Color,Color,3,2,6.0,4,4,2,2
910,1244,wc54132b,Blue,1.0,1118.0,1,2,5,choice,After,Color,Color,1,2,2.0,4,4,0,0
911,1245,wc54132b,Red,0.0,599.0,1,3,5,choice,After,Color,Color,2,-4,-2.0,4,4,2,2
912,1246,wc54132b,Scene,0.0,3883.0,1,1,6,choice,Before,Category,Category,2,-3,-1.0,2,2,1,1
913,1247,wc54132b,Food,1.0,5206.0,1,2,6,choice,Before,Category,Category,3,2,0.0,2,2,1,1
914,1248,wc54132b,Animal,1.0,2059.0,1,3,6,choice,Before,Category,Category,1,1,2.0,2,2,0,0
915,1249,wc54132b,Blue,0.0,2433.0,1,1,7,choice,After,Color,Color,3,-2,-4.0,5,5,3,3
916,1250,wc54132b,Green,1.0,3369.0,0,2,7,choice,After,Color,Color,1,-2,2.0,5,5,1,1
917,1251,wc54132b,Yellow,1.0,641.0,1,3,7,choice,After,Color,Color,2,3,3.0,5,5,1,1
918,1258,wffba7a1,Food,,,0,1,1,choice,Before,Category,Category,1,2,2.0,6,6,1,1
919,1259,wffba7a1,Animal,0.0,2517.0,1,2,1,choice,Before,Category,Category,2,-4,-4.0,6,6,2,2
920,1260,wffba7a1,Object,0.0,3438.0,0,3,1,choice,Before,Category,Category,3,1,1.0,6,6,3,3
921,1261,wffba7a1,Scene,0.0,4011.0,0,1,2,choice,After,Category,Category,3,1,0.0,6,6,3,3
922,1262,wffba7a1,Object,0.0,2115.0,0,2,2,choice,After,Category,Category,1,1,1.0,6,6,1,1
923,1263,wffba7a1,Food,0.0,2900.0,1,3,2,choice,After,Category,Category,2,-4,-4.0,6,6,2,2
924,1264,wffba7a1,Food,1.0,2077.0,1,1,3,choice,Before,Category,Category,3,2,2.0,6,6,3,3
925,1265,wffba7a1,Scene,1.0,2443.0,1,2,3,choice,Before,Category,Category,2,1,1.0,6,6,2,2
926,1266,wffba7a1,Animal,0.0,2580.0,1,3,3,choice,Before,Category,Category,1,-2,-1.0,6,6,1,1
927,1267,wffba7a1,Red,0.0,6767.0,0,1,4,choice,After,Color,Color,1,2,-1.0,4,4,1,2
928,1268,wffba7a1,Blue,0.0,3012.0,1,2,4,choice,After,Color,Color,2,-3,-2.0,4,4,1,2
929,1269,wffba7a1,Yellow,1.0,1871.0,1,3,4,choice,After,Color,Color,3,1,2.0,4,4,2,2
930,1270,wffba7a1,Food,1.0,6306.0,1,1,5,choice,Before,Category,Category,1,1,1.0,6,6,1,1
931,1271,wffba7a1,Object,0.0,2829.0,1,2,5,choice,Before,Category,Category,3,-3,1.0,6,6,3,3
932,1272,wffba7a1,Animal,0.0,2080.0,1,3,5,choice,Before,Category,Category,2,-1,-3.0,6,6,2,2
933,1273,wffba7a1,Red,0.0,3471.0,1,1,6,choice,After,Color,Color,3,-1,-3.0,5,5,2,2
934,1274,wffba7a1,Blue,1.0,2417.0,1,2,6,choice,After,Color,Color,2,1,3.0,5,5,2,2
935,1275,wffba7a1,Yellow,1.0,3301.0,1,3,6,choice,After,Color,Color,1,1,1.0,5,5,1,2
936,1276,wffba7a1,Green,0.0,1379.0,0,1,7,choice,Before,Color,Color,3,2,1.0,6,6,3,3
937,1277,wffba7a1,Red,0.0,1844.0,1,2,7,choice,Before,Color,Color,1,-1,1.0,6,6,1,1
938,1278,wffba7a1,Blue,0.0,1706.0,1,3,7,choice,Before,Color,Color,2,-1,-4.0,6,6,2,2
939,1303,w38a9dbf,Animal,,,0,1,1,choice,Before,Category,Category,2,-4,-2.0,5,5,2,2
940,1304,w38a9dbf,Food,0.0,3340.0,1,2,1,choice,Before,Category,Category,1,-2,-2.0,5,5,1,1
941,1305,w38a9dbf,Scene,1.0,1495.0,1,3,1,choice,Before,Category,Category,3,4,2.0,5,5,2,3
942,1306,w38a9dbf,Green,1.0,1975.0,0,1,2,choice,After,Color,Color,2,-1,3.0,5,5,1,1
943,1307,w38a9dbf,Red,1.0,1590.0,1,2,2,choice,After,Color,Color,1,2,2.0,5,5,1,1
944,1308,w38a9dbf,Yellow,0.0,666.0,1,3,2,choice,After,Color,Color,3,-3,-4.0,5,5,3,4
945,1309,w38a9dbf,Object,1.0,3648.0,0,1,3,choice,Before,Category,Category,2,-1,1.0,6,6,2,2
946,1310,w38a9dbf,Animal,0.0,958.0,1,2,3,choice,Before,Category,Category,3,-1,-2.0,6,6,3,3
947,1311,w38a9dbf,Food,1.0,5451.0,1,3,3,choice,Before,Category,Category,1,2,1.0,6,6,1,1
948,1312,w38a9dbf,Blue,1.0,2364.0,1,1,4,choice,After,Color,Color,1,1,1.0,5,5,1,1
949,1313,w38a9dbf,Red,0.0,1142.0,1,2,4,choice,After,Color,Color,3,-5,-4.0,5,5,2,2
950,1314,w38a9dbf,Green,1.0,1399.0,1,3,4,choice,After,Color,Color,2,3,2.0,5,5,2,2
951,1315,w38a9dbf,Green,0.0,2778.0,1,1,5,choice,Before,Color,Color,3,-2,1.0,6,6,3,3
952,1316,w38a9dbf,Yellow,0.0,3634.0,1,2,5,choice,Before,Color,Color,1,-2,-1.0,6,6,1,1
953,1317,w38a9dbf,Red,1.0,546.0,1,3,5,choice,Before,Color,Color,2,2,2.0,6,6,2,2
954,1318,w38a9dbf,Animal,1.0,3237.0,0,1,6,choice,After,Category,Category,2,-4,0.0,3,3,1,2
955,1319,w38a9dbf,Food,1.0,1997.0,1,2,6,choice,After,Category,Category,3,4,3.0,3,3,1,1
956,1320,w38a9dbf,Scene,0.0,695.0,1,3,6,choice,After,Category,Category,1,-1,-1.0,3,3,1,2
957,1321,w38a9dbf,Scene,0.0,2291.0,0,1,7,choice,Before,Category,Category,3,2,-1.0,4,4,2,3
958,1322,w38a9dbf,Food,1.0,996.0,0,2,7,choice,Before,Category,Category,1,-1,2.0,4,4,1,2
959,1323,w38a9dbf,Object,0.0,866.0,0,3,7,choice,Before,Category,Category,2,1,0.0,4,4,1,1
960,1330,w8363ab3,Yellow,1.0,1077.0,1,1,1,choice,Before,Color,Color,1,2,1.0,4,4,0,1
961,1331,w8363ab3,Green,1.0,948.0,0,2,1,choice,Before,Color,Color,2,-3,3.0,4,4,2,2
962,1332,w8363ab3,Blue,0.0,516.0,0,3,1,choice,Before,Color,Color,3,1,-2.0,4,4,2,2
963,1333,w8363ab3,Scene,1.0,2930.0,0,1,2,choice,After,Category,Category,3,-2,3.0,5,5,3,3
964,1334,w8363ab3,Food,0.0,3016.0,0,2,2,choice,After,Category,Category,1,2,1.0,5,5,1,1
965,1335,w8363ab3,Object,0.0,1857.0,1,3,2,choice,After,Category,Category,2,-1,0.0,5,5,1,1
966,1336,w8363ab3,Yellow,0.0,6014.0,1,1,3,choice,Before,Color,Color,3,-1,-1.0,3,3,2,2
967,1337,w8363ab3,Red,0.0,1215.0,1,2,3,choice,Before,Color,Color,2,-1,0.0,3,3,1,1
968,1338,w8363ab3,Green,1.0,751.0,1,3,3,choice,Before,Color,Color,1,2,1.0,3,3,0,2
969,1339,w8363ab3,Scene,1.0,1000.0,1,1,4,choice,After,Category,Category,2,1,1.0,4,4,1,2
970,1340,w8363ab3,Object,1.0,821.0,1,2,4,choice,After,Category,Category,1,2,2.0,4,4,1,1
971,1341,w8363ab3,Animal,0.0,1087.0,1,3,4,choice,After,Category,Category,3,-2,-1.0,4,4,2,2
972,1342,w8363ab3,Green,1.0,1189.0,1,1,5,choice,Before,Color,Color,3,1,1.0,5,5,2,2
973,1343,w8363ab3,Yellow,0.0,1119.0,1,2,5,choice,Before,Color,Color,2,-3,-3.0,5,5,2,3
974,1344,w8363ab3,Blue,1.0,489.0,1,3,5,choice,Before,Color,Color,1,1,2.0,5,5,1,1
975,1345,w8363ab3,Scene,1.0,1344.0,1,1,6,choice,After,Category,Category,2,2,2.0,5,5,1,2
976,1346,w8363ab3,Object,0.0,717.0,1,2,6,choice,After,Category,Category,1,-2,-2.0,5,5,1,1
977,1347,w8363ab3,Food,0.0,661.0,1,3,6,choice,After,Category,Category,3,-3,5.0,5,5,3,3
978,1348,w8363ab3,Red,1.0,801.0,1,1,7,choice,Before,Color,Color,3,2,-1.0,3,3,2,2
979,1349,w8363ab3,Blue,0.0,642.0,1,2,7,choice,Before,Color,Color,1,-2,-2.0,3,3,0,1
980,1350,w8363ab3,Yellow,1.0,335.0,1,3,7,choice,Before,Color,Color,2,1,2.0,3,3,1,2
981,1357,wd20dd5c,Food,0.0,3418.0,1,1,1,choice,After,Category,Category,3,-2,-2.0,4,4,2,2
982,1358,wd20dd5c,Scene,1.0,1111.0,1,2,1,choice,After,Category,Category,1,1,2.0,4,4,1,1
983,1359,wd20dd5c,Object,1.0,928.0,1,3,1,choice,After,Category,Category,2,1,1.0,4,4,1,1
984,1360,wd20dd5c,Blue,0.0,3093.0,1,1,2,choice,Before,Color,Color,1,-1,-1.0,4,4,1,1
985,1361,wd20dd5c,Yellow,0.0,2886.0,0,2,2,choice,Before,Color,Color,3,2,2.0,4,4,1,1
986,1362,wd20dd5c,Green,1.0,582.0,0,3,2,choice,Before,Color,Color,2,-1,4.0,4,4,2,2
987,1363,wd20dd5c,Scene,1.0,3366.0,1,1,3,choice,After,Category,Category,1,2,2.0,6,6,1,1
988,1364,wd20dd5c,Animal,1.0,3310.0,0,2,3,choice,After,Category,Category,2,-3,0.0,6,6,2,2
989,1365,wd20dd5c,Object,1.0,3372.0,1,3,3,choice,After,Category,Category,3,2,2.0,6,6,3,3
990,1366,wd20dd5c,Animal,0.0,1734.0,1,1,4,choice,Before,Category,Category,2,-3,-3.0,5,5,2,2
991,1367,wd20dd5c,Object,1.0,845.0,1,2,4,choice,Before,Category,Category,3,3,5.0,5,5,2,3
992,1368,wd20dd5c,Food,0.0,1797.0,1,3,4,choice,Before,Category,Category,1,-2,-2.0,5,5,1,1
993,1369,wd20dd5c,Blue,1.0,2116.0,1,1,5,choice,After,Color,Color,2,1,3.0,5,5,2,3
994,1370,wd20dd5c,Green,0.0,768.0,1,2,5,choice,After,Color,Color,3,-1,-1.0,5,5,2,2
995,1371,wd20dd5c,Yellow,1.0,917.0,1,3,5,choice,After,Color,Color,1,1,1.0,5,5,1,1
996,1372,wd20dd5c,Red,0.0,2723.0,1,1,6,choice,Before,Color,Color,3,-1,-1.0,5,5,3,3
997,1373,wd20dd5c,Blue,1.0,5329.0,1,2,6,choice,Before,Color,Color,1,1,1.0,5,5,1,1
998,1374,wd20dd5c,Yellow,1.0,417.0,1,3,6,choice,Before,Color,Color,2,1,3.0,5,5,1,2
999,1375,wd20dd5c,Scene,0.0,1081.0,1,1,7,choice,After,Category,Category,3,-6,-6.0,6,6,3,3
1000,1376,wd20dd5c,Food,1.0,1491.0,1,2,7,choice,After,Category,Category,2,3,2.0,6,6,2,2
1001,1377,wd20dd5c,Object,1.0,495.0,1,3,7,choice,After,Category,Category,1,1,1.0,6,6,1,1
1002,1384,w3acba24,Yellow,1.0,3345.0,0,1,1,choice,Before,Color,Color,2,-1,3.0,2,2,1,1
1003,1385,w3acba24,Red,0.0,5121.0,0,2,1,choice,Before,Color,Color,1,1,-1.0,2,2,1,3
1004,1386,w3acba24,Blue,0.0,2108.0,1,3,1,choice,Before,Color,Color,3,-1,-1.0,2,2,0,0
1005,1387,w3acba24,Scene,1.0,1968.0,1,1,2,choice,After,Category,Category,2,3,3.0,4,4,1,1
1006,1388,w3acba24,Food,0.0,5570.0,1,2,2,choice,After,Category,Category,3,-1,0.0,4,4,2,2
1007,1389,w3acba24,Object,1.0,1377.0,0,3,2,choice,After,Category,Category,1,-1,1.0,4,4,1,1
1008,1390,w3acba24,Object,0.0,4196.0,1,1,3,choice,Before,Category,Category,2,-1,-3.0,5,5,2,2
1009,1391,w3acba24,Food,0.0,4462.0,1,2,3,choice,Before,Category,Category,1,-1,-1.0,5,5,1,1
1010,1392,w3acba24,Animal,1.0,3452.0,1,3,3,choice,Before,Category,Category,3,2,2.0,5,5,2,2
1011,1393,w3acba24,Object,0.0,3672.0,1,1,4,choice,After,Category,Category,3,-3,0.0,5,5,3,3
1012,1394,w3acba24,Scene,1.0,3749.0,1,2,4,choice,After,Category,Category,1,1,1.0,5,5,1,1
1013,1395,w3acba24,Animal,1.0,6809.0,0,3,4,choice,After,Category,Category,2,-1,3.0,5,5,1,1
1014,1396,w3acba24,Yellow,1.0,2139.0,0,1,5,choice,Before,Color,Color,1,-2,-1.0,3,3,0,0
1015,1397,w3acba24,Green,0.0,1579.0,1,2,5,choice,Before,Color,Color,3,-2,-2.0,3,3,2,2
1016,1398,w3acba24,Red,,,0,3,5,choice,Before,Color,Color,2,4,1.0,3,3,1,2
1017,1399,w3acba24,Food,1.0,4057.0,1,1,6,choice,After,Category,Category,3,2,3.0,4,4,2,2
1018,1400,w3acba24,Animal,1.0,3176.0,1,2,6,choice,After,Category,Category,2,1,0.0,4,4,1,2
1019,1401,w3acba24,Scene,1.0,1038.0,0,3,6,choice,After,Category,Category,1,-2,-2.0,4,4,1,1
1020,1402,w3acba24,Yellow,1.0,3249.0,1,1,7,choice,Before,Color,Color,1,1,1.0,3,3,1,1
1021,1403,w3acba24,Green,1.0,4715.0,0,2,7,choice,Before,Color,Color,3,-2,1.0,3,3,2,2
1022,1404,w3acba24,Blue,0.0,1627.0,0,3,7,choice,Before,Color,Color,2,1,-2.0,3,3,0,0
1023,1411,w8843fd3,Blue,0.0,4249.0,1,1,1,choice,After,Color,Color,3,-2,-6.0,5,5,2,2
1024,1412,w8843fd3,Green,1.0,1054.0,1,2,1,choice,After,Color,Color,2,3,3.0,5,5,2,2
1025,1413,w8843fd3,Yellow,0.0,3612.0,1,3,1,choice,After,Color,Color,1,-2,-2.0,5,5,1,1
1026,1414,w8843fd3,Food,0.0,4915.0,1,1,2,choice,Before,Category,Category,1,-1,-2.0,6,6,1,1
1027,1415,w8843fd3,Scene,1.0,1496.0,1,2,2,choice,Before,Category,Category,3,3,3.0,6,6,3,3
1028,1416,w8843fd3,Object,0.0,2947.0,1,3,2,choice,Before,Category,Category,2,-1,-1.0,6,6,2,2
1029,1417,w8843fd3,Scene,0.0,4264.0,0,1,3,choice,After,Category,Category,1,1,1.0,5,5,0,0
1030,1418,w8843fd3,Animal,0.0,3519.0,1,2,3,choice,After,Category,Category,2,-3,-3.0,5,5,2,2
1031,1419,w8843fd3,Food,1.0,978.0,1,3,3,choice,After,Category,Category,3,1,1.0,5,5,3,3
1032,1420,w8843fd3,Red,0.0,3836.0,1,1,4,choice,Before,Color,Color,1,-1,-1.0,5,5,1,2
1033,1421,w8843fd3,Blue,1.0,731.0,1,2,4,choice,Before,Color,Color,2,3,3.0,5,5,2,2
1034,1422,w8843fd3,Yellow,0.0,400.0,1,3,4,choice,Before,Color,Color,3,-1,-1.0,5,5,2,2
1035,1423,w8843fd3,Yellow,1.0,2837.0,1,1,5,choice,After,Color,Color,2,4,3.0,5,5,1,2
1036,1424,w8843fd3,Blue,0.0,4767.0,1,2,5,choice,After,Color,Color,1,-2,-2.0,5,5,1,1
1037,1425,w8843fd3,Green,0.0,2449.0,1,3,5,choice,After,Color,Color,3,-1,-1.0,5,5,3,3
1038,1426,w8843fd3,Food,0.0,3647.0,0,1,6,choice,Before,Category,Category,3,2,0.0,5,5,2,2
1039,1427,w8843fd3,Scene,0.0,1420.0,1,2,6,choice,Before,Category,Category,2,-3,-3.0,5,5,2,2
1040,1428,w8843fd3,Object,1.0,1680.0,1,3,6,choice,Before,Category,Category,1,2,2.0,5,5,1,1
1041,1429,w8843fd3,Red,0.0,3189.0,0,1,7,choice,After,Color,Color,3,1,-2.0,4,4,2,2
1042,1430,w8843fd3,Yellow,1.0,674.0,1,2,7,choice,After,Color,Color,2,1,1.0,4,4,1,1
1043,1431,w8843fd3,Blue,0.0,2484.0,1,3,7,choice,After,Color,Color,1,-2,-2.0,4,4,1,1
1044,1447,wa136b3d,Green,1.0,3351.0,1,1,1,choice,Before,Color,Color,1,1,2.0,4,4,1,1
1045,1448,wa136b3d,Red,1.0,1418.0,0,2,1,choice,Before,Color,Color,2,-4,-3.0,4,4,1,2
1046,1449,wa136b3d,Yellow,1.0,2820.0,1,3,1,choice,Before,Color,Color,3,2,2.0,4,4,2,2
1047,1450,wa136b3d,Object,1.0,4147.0,0,1,2,choice,After,Category,Category,1,-2,-2.0,5,5,1,1
1048,1451,wa136b3d,Scene,1.0,1421.0,0,2,2,choice,After,Category,Category,3,-1,-3.0,5,5,2,2
1049,1452,wa136b3d,Food,0.0,1255.0,0,3,2,choice,After,Category,Category,2,3,3.0,5,5,2,2
1050,1453,wa136b3d,Green,0.0,3836.0,1,1,3,choice,Before,Color,Color,3,-1,2.0,3,3,1,1
1051,1454,wa136b3d,Red,1.0,3038.0,1,2,3,choice,Before,Color,Color,2,1,4.0,3,3,2,2
1052,1455,wa136b3d,Blue,1.0,2389.0,1,3,3,choice,Before,Color,Color,1,1,1.0,3,3,0,0
1053,1456,wa136b3d,Scene,0.0,3421.0,0,1,4,choice,After,Category,Category,2,1,-4.0,4,4,1,1
1054,1457,wa136b3d,Animal,1.0,5996.0,1,2,4,choice,After,Category,Category,3,1,0.0,4,4,2,2
1055,1458,wa136b3d,Object,1.0,4050.0,0,3,4,choice,After,Category,Category,1,-2,2.0,4,4,1,1
1056,1459,wa136b3d,Green,1.0,5130.0,1,1,5,choice,Before,Color,Color,3,1,-1.0,1,1,1,1
1057,1460,wa136b3d,Yellow,1.0,1527.0,0,2,5,choice,Before,Color,Color,1,-1,1.0,1,1,0,0
1058,1461,wa136b3d,Blue,0.0,2232.0,1,3,5,choice,Before,Color,Color,2,-1,1.0,1,1,0,0
1059,1462,wa136b3d,Blue,1.0,963.0,1,1,6,choice,After,Color,Color,2,1,1.0,3,3,1,1
1060,1463,wa136b3d,Yellow,0.0,2093.0,0,2,6,choice,After,Color,Color,1,2,1.0,3,3,0,0
1061,1464,wa136b3d,Red,0.0,3687.0,1,3,6,choice,After,Color,Color,3,-1,-6.0,3,3,2,2
1062,1465,wa136b3d,Animal,0.0,3498.0,1,1,7,choice,Before,Category,Category,2,-3,2.0,4,4,2,2
1063,1466,wa136b3d,Object,1.0,1725.0,1,2,7,choice,Before,Category,Category,3,2,-1.0,4,4,2,2
1064,1467,wa136b3d,Scene,0.0,2091.0,0,3,7,choice,Before,Category,Category,1,1,-1.0,4,4,0,0
1065,1474,w9cf2bd7,Red,1.0,3478.0,0,1,1,choice,After,Color,Color,2,-1,1.0,3,3,2,3
1066,1475,w9cf2bd7,Yellow,1.0,3173.0,0,2,1,choice,After,Color,Color,3,-2,3.0,3,3,0,0
1067,1476,w9cf2bd7,Green,0.0,3805.0,0,3,1,choice,After,Color,Color,1,2,-2.0,3,3,1,3
1068,1477,w9cf2bd7,Scene,1.0,3953.0,1,1,2,choice,Before,Category,Category,3,1,4.0,4,4,2,3
1069,1478,w9cf2bd7,Food,1.0,4789.0,1,2,2,choice,Before,Category,Category,2,1,3.0,4,4,2,2
1070,1479,w9cf2bd7,Object,0.0,1353.0,1,3,2,choice,Before,Category,Category,1,-1,-1.0,4,4,0,1
1071,1480,w9cf2bd7,Animal,0.0,2233.0,1,1,3,choice,After,Category,Category,1,-2,-2.0,3,3,0,0
1072,1481,w9cf2bd7,Scene,1.0,1270.0,1,2,3,choice,After,Category,Category,2,2,4.0,3,3,1,1
1073,1482,w9cf2bd7,Food,0.0,2908.0,1,3,3,choice,After,Category,Category,3,-1,-1.0,3,3,2,2
1074,1483,w9cf2bd7,Red,1.0,2904.0,1,1,4,choice,Before,Color,Color,1,1,-1.0,2,2,0,0
1075,1484,w9cf2bd7,Blue,0.0,1187.0,1,2,4,choice,Before,Color,Color,2,-1,0.0,2,2,2,2
1076,1485,w9cf2bd7,Yellow,1.0,1751.0,0,3,4,choice,Before,Color,Color,3,-1,-2.0,2,2,0,0
1077,1486,w9cf2bd7,Yellow,1.0,1583.0,0,1,5,choice,After,Color,Color,1,-1,-2.0,3,3,0,0
1078,1487,w9cf2bd7,Green,1.0,622.0,0,2,5,choice,After,Color,Color,3,-2,0.0,3,3,1,1
1079,1488,w9cf2bd7,Blue,0.0,535.0,0,3,5,choice,After,Color,Color,2,3,0.0,3,3,2,2
1080,1489,w9cf2bd7,Blue,0.0,3654.0,1,1,6,choice,Before,Color,Color,2,-3,-4.0,6,6,2,2
1081,1490,w9cf2bd7,Red,1.0,1013.0,1,2,6,choice,Before,Color,Color,3,1,4.0,6,6,3,3
1082,1491,w9cf2bd7,Yellow,1.0,1219.0,1,3,6,choice,Before,Color,Color,1,2,2.0,6,6,1,1
1083,1492,w9cf2bd7,Object,0.0,1834.0,1,1,7,choice,After,Category,Category,3,-3,-5.0,5,5,2,3
1084,1493,w9cf2bd7,Scene,1.0,1416.0,0,2,7,choice,After,Category,Category,1,-1,1.0,5,5,1,1
1085,1494,w9cf2bd7,Animal,1.0,929.0,1,3,7,choice,After,Category,Category,2,4,4.0,5,5,2,2
1086,1501,wf537da7,Object,,,0,1,1,choice,After,Category,Category,3,2,0.0,5,5,2,2
1087,1502,wf537da7,Animal,0.0,7155.0,1,2,1,choice,After,Category,Category,2,-3,-3.0,5,5,2,2
1088,1503,wf537da7,Food,1.0,2724.0,1,3,1,choice,After,Category,Category,1,1,1.0,5,5,1,1
1089,1504,wf537da7,Object,1.0,1690.0,0,1,2,choice,Before,Category,Category,2,-3,-4.0,4,4,1,1
1090,1505,wf537da7,Scene,1.0,1841.0,1,2,2,choice,Before,Category,Category,3,2,4.0,4,4,2,2
1091,1506,wf537da7,Food,0.0,2657.0,0,3,2,choice,Before,Category,Category,1,1,-1.0,4,4,1,2
1092,1507,wf537da7,Yellow,0.0,4037.0,0,1,3,choice,After,Color,Color,3,2,2.0,2,2,1,1
1093,1508,wf537da7,Red,1.0,1024.0,0,2,3,choice,After,Color,Color,2,-2,0.0,2,2,1,1
1094,1509,wf537da7,Green,0.0,2029.0,0,3,3,choice,After,Color,Color,1,1,2.0,2,2,0,1
1095,1510,wf537da7,Animal,0.0,1840.0,1,1,4,choice,Before,Category,Category,3,-2,-5.0,5,5,2,2
1096,1511,wf537da7,Object,0.0,1655.0,1,2,4,choice,Before,Category,Category,1,-1,-1.0,5,5,1,1
1097,1512,wf537da7,Scene,1.0,1248.0,1,3,4,choice,Before,Category,Category,2,2,3.0,5,5,2,2
1098,1513,wf537da7,Yellow,0.0,3627.0,0,1,5,choice,After,Color,Color,2,4,-3.0,2,2,1,2
1099,1514,wf537da7,Green,1.0,987.0,0,2,5,choice,After,Color,Color,3,-2,-1.0,2,2,1,1
1100,1515,wf537da7,Blue,0.0,1330.0,1,3,5,choice,After,Color,Color,1,-1,-1.0,2,2,0,0
1101,1516,wf537da7,Scene,1.0,1657.0,1,1,6,choice,Before,Category,Category,2,3,2.0,3,3,0,1
1102,1517,wf537da7,Object,0.0,895.0,1,2,6,choice,Before,Category,Category,1,-2,-2.0,3,3,1,1
1103,1518,wf537da7,Food,0.0,1875.0,1,3,6,choice,Before,Category,Category,3,-1,-4.0,3,3,2,2
1104,1519,wf537da7,Blue,0.0,3500.0,1,1,7,choice,After,Color,Color,1,-2,1.0,3,3,0,0
1105,1520,wf537da7,Yellow,0.0,1246.0,0,2,7,choice,After,Color,Color,2,3,-1.0,3,3,1,2
1106,1521,wf537da7,Red,1.0,508.0,0,3,7,choice,After,Color,Color,3,-3,2.0,3,3,2,2
1107,1528,wa4fe3e4,Green,0.0,5134.0,1,1,1,choice,Before,Color,Color,2,-3,2.0,1,1,0,0
1108,1529,wa4fe3e4,Yellow,1.0,1350.0,1,2,1,choice,Before,Color,Color,1,1,1.0,1,1,0,0
1109,1530,wa4fe3e4,Blue,0.0,522.0,0,3,1,choice,Before,Color,Color,3,1,-1.0,1,1,1,2
1110,1531,wa4fe3e4,Blue,1.0,1336.0,1,1,2,choice,After,Color,Color,2,1,2.0,3,3,1,2
1111,1532,wa4fe3e4,Green,1.0,652.0,0,2,2,choice,After,Color,Color,1,-1,1.0,3,3,0,1
1112,1533,wa4fe3e4,Red,1.0,413.0,1,3,2,choice,After,Color,Color,3,2,2.0,3,3,1,1
1113,1534,wa4fe3e4,Scene,1.0,5450.0,1,1,3,choice,Before,Category,Category,1,2,2.0,6,6,1,1
1114,1535,wa4fe3e4,Animal,1.0,1975.0,0,2,3,choice,Before,Category,Category,2,-1,3.0,6,6,1,1
1115,1536,wa4fe3e4,Food,0.0,2161.0,1,3,3,choice,Before,Category,Category,3,-1,-2.0,6,6,1,1
1116,1537,wa4fe3e4,Object,1.0,2207.0,0,1,4,choice,After,Category,Category,1,-1,1.0,3,3,0,0
1117,1538,wa4fe3e4,Scene,1.0,376.0,1,2,4,choice,After,Category,Category,2,2,-3.0,3,3,0,0
1118,1539,wa4fe3e4,Animal,0.0,292.0,1,3,4,choice,After,Category,Category,3,-1,1.0,3,3,1,1
1119,1540,wa4fe3e4,Yellow,0.0,2753.0,1,1,5,choice,Before,Color,Color,2,-4,-2.0,2,2,1,1
1120,1541,wa4fe3e4,Green,1.0,1035.0,1,2,5,choice,Before,Color,Color,3,1,0.0,2,2,1,1
1121,1542,wa4fe3e4,Blue,1.0,1269.0,1,3,5,choice,Before,Color,Color,1,2,2.0,2,2,0,0
1122,1543,wa4fe3e4,Food,1.0,2769.0,1,1,6,choice,After,Category,Category,3,1,-1.0,4,4,2,2
1123,1544,wa4fe3e4,Object,0.0,3572.0,1,2,6,choice,After,Category,Category,1,-1,1.0,4,4,0,0
1124,1545,wa4fe3e4,Scene,1.0,1616.0,0,3,6,choice,After,Category,Category,2,-1,3.0,4,4,0,0
1125,1546,wa5817fc,Red,0.0,4509.0,1,1,1,choice,After,Color,Color,1,-2,-2.0,5,5,1,1
1126,1547,wa5817fc,Yellow,1.0,1747.0,1,2,1,choice,After,Color,Color,2,3,3.0,5,5,2,2
1127,1548,wa5817fc,Blue,0.0,2495.0,1,3,1,choice,After,Color,Color,3,-1,2.0,5,5,2,2
1128,1549,wa5817fc,Yellow,0.0,2159.0,0,1,2,choice,Before,Color,Color,3,1,0.0,5,5,2,2
1129,1550,wa5817fc,Green,1.0,1351.0,0,2,2,choice,Before,Color,Color,2,-1,0.0,5,5,2,2
1130,1551,wa5817fc,Red,0.0,4777.0,1,3,2,choice,Before,Color,Color,1,-2,-2.0,5,5,1,2
1131,1552,wa5817fc,Animal,0.0,2019.0,0,1,3,choice,After,Category,Category,3,1,-2.0,4,4,3,3
1132,1553,wa5817fc,Object,1.0,1019.0,0,2,3,choice,After,Category,Category,2,-1,1.0,4,4,1,1
1133,1554,wa5817fc,Food,1.0,3290.0,0,3,3,choice,After,Category,Category,1,-1,-1.0,4,4,0,0
1134,1555,wa5817fc,Animal,1.0,891.0,1,1,4,choice,Before,Category,Category,2,2,0.0,6,6,2,2
1135,1556,wa5817fc,Object,0.0,1377.0,1,2,4,choice,Before,Category,Category,3,-3,-2.0,6,6,3,3
1136,1557,wa5817fc,Scene,1.0,872.0,0,3,4,choice,Before,Category,Category,1,-1,-2.0,6,6,1,1
1137,1558,wa5817fc,Scene,0.0,2813.0,1,1,5,choice,After,Category,Category,2,-1,1.0,4,4,2,2
1138,1559,wa5817fc,Object,1.0,2425.0,1,2,5,choice,After,Category,Category,3,1,-2.0,4,4,1,1
1139,1560,wa5817fc,Animal,0.0,2667.0,1,3,5,choice,After,Category,Category,1,-1,-2.0,4,4,1,2
1140,1561,wa5817fc,Blue,0.0,1800.0,1,1,6,choice,Before,Color,Color,3,-1,-4.0,3,3,1,1
1141,1562,wa5817fc,Red,0.0,5151.0,1,2,6,choice,Before,Color,Color,2,-1,0.0,3,3,1,2
1142,1563,wa5817fc,Green,1.0,876.0,1,3,6,choice,Before,Color,Color,1,2,2.0,3,3,1,2
1143,1564,wa5817fc,Yellow,1.0,3674.0,1,1,7,choice,After,Color,Color,1,2,-1.0,5,5,1,1
1144,1565,wa5817fc,Green,0.0,920.0,0,2,7,choice,After,Color,Color,3,1,-1.0,5,5,2,2
1145,1566,wa5817fc,Blue,0.0,428.0,1,3,7,choice,After,Color,Color,2,-3,-1.0,5,5,2,2
1146,1573,wd238f0c,Green,0.0,4588.0,1,1,1,choice,After,Color,Color,2,-1,-1.0,4,4,1,1
1147,1574,wd238f0c,Yellow,1.0,1950.0,0,2,1,choice,After,Color,Color,1,-1,-1.0,4,4,1,2
1148,1575,wd238f0c,Blue,0.0,3554.0,0,3,1,choice,After,Color,Color,3,1,5.0,4,4,2,2
1149,1576,wd238f0c,Scene,1.0,1318.0,1,1,2,choice,Before,Category,Category,3,2,6.0,1,1,1,1
1150,1577,wd238f0c,Object,0.0,2457.0,1,2,2,choice,Before,Category,Category,2,-4,-4.0,1,1,0,0
1151,1578,wd238f0c,Food,1.0,1423.0,1,3,2,choice,Before,Category,Category,1,1,1.0,1,1,0,0
1152,1579,wd238f0c,Red,1.0,4092.0,1,1,3,choice,After,Color,Color,2,1,3.0,3,3,1,1
1153,1580,wd238f0c,Green,0.0,4158.0,0,2,3,choice,After,Color,Color,1,2,2.0,3,3,1,1
1154,1581,wd238f0c,Yellow,0.0,3124.0,1,3,3,choice,After,Color,Color,3,-2,-1.0,3,3,1,1
1155,1582,wd238f0c,Object,1.0,2683.0,1,1,4,choice,Before,Category,Category,1,1,1.0,2,2,0,0
1156,1583,wd238f0c,Animal,0.0,1092.0,1,2,4,choice,Before,Category,Category,3,-2,-3.0,2,2,2,3
1157,1584,wd238f0c,Scene,1.0,918.0,1,3,4,choice,Before,Category,Category,2,1,3.0,2,2,0,0
1158,1585,wd238f0c,Blue,0.0,3383.0,1,1,5,choice,After,Color,Color,1,-2,2.0,2,2,0,0
1159,1586,wd238f0c,Green,0.0,1002.0,1,2,5,choice,After,Color,Color,3,-3,-3.0,2,2,2,2
1160,1587,wd238f0c,Yellow,1.0,473.0,1,3,5,choice,After,Color,Color,2,3,3.0,2,2,0,0
1161,1588,w16b46ff,Object,1.0,5501.0,1,1,1,choice,Before,Category,Category,3,1,1.0,3,3,1,1
1162,1589,w16b46ff,Animal,0.0,4914.0,1,2,1,choice,Before,Category,Category,2,-1,-1.0,3,3,2,2
1163,1590,w16b46ff,Food,0.0,2611.0,1,3,1,choice,Before,Category,Category,1,-2,1.0,3,3,0,0
1164,1591,w16b46ff,Food,0.0,2405.0,1,1,2,choice,After,Category,Category,1,-1,-1.0,2,2,0,0
1165,1592,w16b46ff,Object,1.0,1242.0,1,2,2,choice,After,Category,Category,2,2,1.0,2,2,0,0
1166,1593,w16b46ff,Scene,1.0,1772.0,0,3,2,choice,After,Category,Category,3,-1,2.0,2,2,2,2
1167,1594,w16b46ff,Scene,0.0,2711.0,0,1,3,choice,Before,Category,Category,1,1,2.0,3,3,0,1
1168,1595,w16b46ff,Food,1.0,1356.0,1,2,3,choice,Before,Category,Category,3,1,1.0,3,3,3,3
