,index,wid,option,choice,rt,correct,trial_number,game,phase,multi_time,multi_dim,dim_shown,n_true_memories,value,remembered_value,n_total_memories_shown,n_total_memories,n_remembered_shown,n_remembered,recalled_mem_value
0,1,wcc033bc,Red,0.0,2467.0,1,2,2,choice,Before,Color,Color,1,-1,-2.0,3,3,1,1,-2.0
1,2,wcc033bc,Blue,1.0,1990.0,0,3,2,choice,Before,Color,Color,2,-1,2.0,3,3,2,3,2.0
2,3,wcc033bc,Red,0.0,3592.0,1,1,3,choice,After,Color,Color,3,-1,-1.0,3,3,1,1,1.0
3,4,wcc033bc,Yellow,1.0,1976.0,1,2,3,choice,After,Color,Color,2,4,0.0,3,3,1,1,-2.0
4,5,wcc033bc,Blue,1.0,1474.0,0,3,3,choice,After,Color,Color,1,-2,1.0,3,3,1,2,1.0
5,6,w367fa57,Red,1.0,2193.0,1,1,1,choice,After,Color,Color,2,2,2.0,2,2,2,2,2.0
6,10,w367fa57,Food,0.0,3196.0,1,2,2,choice,Before,Category,Category,2,-3,-2.0,3,3,2,2,-2.0
7,11,w367fa57,Scene,1.0,1078.0,1,3,2,choice,Before,Category,Category,3,5,5.0,3,3,1,1,2.0
8,12,w367fa57,Red,1.0,5312.0,1,1,3,choice,After,Color,Color,2,3,3.0,4,4,2,2,3.0
9,13,w367fa57,Blue,0.0,1279.0,1,2,3,choice,After,Color,Color,1,-2,-2.0,4,4,1,2,-2.0
10,14,w367fa57,Green,1.0,1470.0,0,3,3,choice,After,Color,Color,3,-1,0.0,4,4,1,1,-1.0
11,15,w367fa57,Animal,1.0,3825.0,0,1,4,choice,Before,Category,Category,3,-1,2.0,4,4,1,1,1.0
12,16,w367fa57,Object,0.0,4400.0,1,2,4,choice,Before,Category,Category,1,-2,-1.0,4,4,1,1,-1.0
13,17,w367fa57,Scene,1.0,799.0,1,3,4,choice,Before,Category,Category,2,4,4.0,4,4,2,3,4.0
14,18,w367fa57,Animal,0.0,6833.0,1,1,5,choice,After,Category,Category,2,-3,-3.0,6,6,2,2,-3.0
15,19,w367fa57,Food,,,0,2,5,choice,After,Category,Category,1,-1,-1.0,6,6,1,1,-1.0
16,20,w367fa57,Object,1.0,2667.0,1,3,5,choice,After,Category,Category,3,6,6.0,6,6,3,3,6.0
17,21,w367fa57,Red,0.0,1782.0,1,1,6,choice,Before,Color,Color,3,-5,-5.0,6,6,3,3,-5.0
18,22,w367fa57,Blue,1.0,1881.0,1,2,6,choice,Before,Color,Color,2,3,3.0,6,6,2,2,3.0
19,23,w367fa57,Yellow,1.0,1965.0,1,3,6,choice,Before,Color,Color,1,2,2.0,6,6,1,1,2.0
20,24,w367fa57,Animal,0.0,1486.0,1,1,7,choice,After,Category,Category,2,-3,-2.0,3,3,1,1,-1.0
21,26,w367fa57,Object,1.0,837.0,1,3,7,choice,After,Category,Category,3,2,4.0,3,3,2,2,3.0
22,33,w54c2956,Green,,,0,1,1,choice,Before,Color,Color,2,1,-4.0,5,5,2,2,-4.0
23,34,w54c2956,Blue,0.0,1485.0,1,2,1,choice,Before,Color,Color,3,-2,-4.0,5,5,2,2,-3.0
24,35,w54c2956,Red,1.0,2197.0,1,3,1,choice,Before,Color,Color,1,2,2.0,5,5,1,1,2.0
25,36,w54c2956,Food,1.0,6439.0,1,1,2,choice,After,Category,Category,2,1,3.0,3,3,1,2,2.0
26,37,w54c2956,Scene,0.0,1434.0,1,2,2,choice,After,Category,Category,3,-2,-5.0,3,3,1,1,-2.0
27,38,w54c2956,Animal,0.0,2597.0,0,3,2,choice,After,Category,Category,1,2,-1.0,3,3,1,1,-1.0
28,39,w54c2956,Object,1.0,3766.0,1,1,3,choice,Before,Category,Category,3,1,5.0,4,4,2,2,4.0
29,40,w54c2956,Animal,1.0,3325.0,1,2,3,choice,Before,Category,Category,2,1,2.0,4,4,1,2,1.0
30,41,w54c2956,Scene,0.0,437.0,1,3,3,choice,Before,Category,Category,1,-1,-2.0,4,4,1,1,-2.0
31,42,w54c2956,Object,1.0,2369.0,1,1,4,choice,After,Category,Category,3,1,3.0,4,4,2,2,4.0
32,43,w54c2956,Food,0.0,997.0,1,2,4,choice,After,Category,Category,1,-2,1.0,4,4,1,1,1.0
33,44,w54c2956,Animal,1.0,3367.0,1,3,4,choice,After,Category,Category,2,1,1.0,4,4,1,2,-1.0
34,46,w54c2956,Green,1.0,1488.0,1,2,5,choice,Before,Color,Color,3,2,-2.0,4,4,2,2,-3.0
35,47,w54c2956,Blue,0.0,449.0,1,3,5,choice,Before,Color,Color,2,-3,1.0,4,4,2,2,1.0
36,48,w54c2956,Animal,1.0,1496.0,1,1,6,choice,After,Category,Category,2,1,-3.0,4,4,2,2,-3.0
37,50,w54c2956,Food,0.0,2732.0,1,3,6,choice,After,Category,Category,3,-1,3.0,4,4,2,2,2.0
38,51,w54c2956,Yellow,0.0,1446.0,0,1,7,choice,Before,Color,Color,3,2,-4.0,2,2,2,3,-2.0
39,60,w1d52e8b,Yellow,0.0,3020.0,0,1,1,choice,After,Color,Color,3,1,-4.0,3,3,1,2,-1.0
40,61,w1d52e8b,Blue,1.0,1193.0,1,2,1,choice,After,Color,Color,2,1,0.0,3,3,1,1,2.0
41,62,w1d52e8b,Green,1.0,1348.0,0,3,1,choice,After,Color,Color,1,-2,-1.0,3,3,1,1,-1.0
42,65,w1d52e8b,Green,1.0,3041.0,1,3,2,choice,Before,Color,Color,3,2,1.0,2,2,2,2,0.0
43,67,w1d52e8b,Scene,1.0,1469.0,1,2,3,choice,After,Category,Category,3,2,-2.0,5,5,3,4,-2.0
44,68,w1d52e8b,Animal,0.0,1300.0,1,3,3,choice,After,Category,Category,2,-2,0.0,5,5,2,2,0.0
45,69,w1d52e8b,Red,0.0,1531.0,1,1,4,choice,Before,Color,Color,3,-3,-2.0,2,2,1,2,1.0
46,71,w1d52e8b,Green,0.0,818.0,1,3,4,choice,Before,Color,Color,1,-2,-2.0,2,2,1,2,-2.0
47,72,w1d52e8b,Scene,1.0,2025.0,0,1,5,choice,After,Category,Category,2,-2,-3.0,3,3,1,2,-2.0
48,74,w1d52e8b,Animal,0.0,1498.0,0,3,5,choice,After,Category,Category,3,1,-2.0,3,3,2,2,0.0
49,75,w1d52e8b,Green,1.0,1636.0,1,1,6,choice,Before,Color,Color,3,3,0.0,3,3,2,2,2.0
50,77,w1d52e8b,Red,0.0,866.0,1,3,6,choice,Before,Color,Color,2,-1,-1.0,3,3,1,2,-2.0
51,78,w1d52e8b,Object,0.0,1049.0,0,1,7,choice,After,Category,Category,3,1,-3.0,3,3,2,3,-1.0
52,80,w1d52e8b,Food,1.0,2165.0,1,3,7,choice,After,Category,Category,1,2,-2.0,3,3,1,3,-2.0
53,87,w9182e0b,Blue,1.0,2257.0,0,1,2,choice,After,Color,Color,3,-3,3.0,3,3,1,1,2.0
54,88,w9182e0b,Green,1.0,1340.0,1,2,2,choice,After,Color,Color,1,2,-2.0,3,3,1,2,-2.0
55,89,w9182e0b,Yellow,0.0,1301.0,1,3,2,choice,After,Color,Color,2,-1,-1.0,3,3,1,2,-2.0
56,90,w9182e0b,Animal,0.0,5345.0,1,1,3,choice,Before,Category,Category,1,-2,-1.0,3,3,1,1,-1.0
57,91,w9182e0b,Scene,0.0,1754.0,1,2,3,choice,Before,Category,Category,2,-3,-3.0,3,3,1,3,-1.0
58,92,w9182e0b,Food,1.0,811.0,1,3,3,choice,Before,Category,Category,3,4,4.0,3,3,1,1,2.0
59,93,w9182e0b,Animal,0.0,1077.0,1,1,4,choice,After,Category,Category,3,-1,-4.0,3,3,2,3,-2.0
60,94,w9182e0b,Scene,1.0,1467.0,1,2,4,choice,After,Category,Category,2,1,3.0,3,3,1,1,2.0
61,96,w9182e0b,Blue,0.0,2645.0,0,1,5,choice,Before,Color,Color,2,3,-3.0,5,5,2,2,-3.0
62,97,w9182e0b,Green,1.0,1998.0,0,2,5,choice,Before,Color,Color,3,-4,4.0,5,5,3,3,4.0
63,99,w9182e0b,Object,1.0,3716.0,1,1,6,choice,After,Category,Category,1,1,1.0,5,5,1,1,1.0
64,100,w9182e0b,Food,0.0,488.0,1,2,6,choice,After,Category,Category,2,-3,0.0,5,5,2,3,0.0
65,101,w9182e0b,Scene,0.0,1393.0,0,3,6,choice,After,Category,Category,3,2,4.0,5,5,2,2,3.0
66,102,w9182e0b,Object,1.0,1072.0,1,1,7,choice,Before,Category,Category,3,1,4.0,4,4,2,2,2.0
67,104,w9182e0b,Animal,0.0,2188.0,1,3,7,choice,Before,Category,Category,2,-1,-3.0,4,4,2,2,-3.0
68,125,waf52734,Object,,,0,1,1,choice,Before,Category,Category,3,2,2.0,5,5,3,3,2.0
69,126,waf52734,Food,0.0,2905.0,1,2,1,choice,Before,Category,Category,1,-2,-2.0,5,5,1,1,-2.0
70,127,waf52734,Animal,0.0,3719.0,1,3,1,choice,Before,Category,Category,2,-1,-1.0,5,5,1,2,1.0
71,128,waf52734,Red,0.0,3523.0,0,1,2,choice,After,Color,Color,3,1,1.0,6,6,3,3,1.0
72,129,waf52734,Green,0.0,2643.0,1,2,2,choice,After,Color,Color,1,-1,-1.0,6,6,1,1,-1.0
73,130,waf52734,Blue,0.0,3200.0,0,3,2,choice,After,Color,Color,2,1,1.0,6,6,2,2,1.0
74,131,waf52734,Animal,1.0,3448.0,0,1,3,choice,Before,Category,Category,2,-4,-1.0,5,5,2,2,-1.0
75,132,waf52734,Scene,1.0,2460.0,1,2,3,choice,Before,Category,Category,1,2,2.0,5,5,1,2,2.0
76,133,waf52734,Food,1.0,4191.0,1,3,3,choice,Before,Category,Category,3,2,4.0,5,5,2,2,2.0
77,134,waf52734,Red,1.0,3655.0,0,1,4,choice,After,Color,Color,1,-1,-1.0,6,6,1,1,-1.0
78,135,waf52734,Yellow,0.0,3572.0,1,2,4,choice,After,Color,Color,3,-1,-1.0,6,6,3,3,-1.0
79,136,waf52734,Blue,0.0,3832.0,0,3,4,choice,After,Color,Color,2,3,0.0,6,6,2,2,0.0
80,137,waf52734,Green,0.0,3581.0,1,1,5,choice,Before,Color,Color,3,-1,-1.0,5,5,2,2,-2.0
81,138,waf52734,Yellow,0.0,4211.0,1,2,5,choice,Before,Color,Color,2,-1,2.0,5,5,2,3,2.0
82,139,waf52734,Blue,1.0,1515.0,1,3,5,choice,Before,Color,Color,1,1,1.0,5,5,1,1,1.0
83,140,waf52734,Object,1.0,3916.0,1,1,6,choice,After,Category,Category,1,2,1.0,6,6,1,1,1.0
84,141,waf52734,Scene,1.0,1388.0,1,2,6,choice,After,Category,Category,2,4,2.0,6,6,2,2,2.0
85,142,waf52734,Food,0.0,1376.0,1,3,6,choice,After,Category,Category,3,-4,-4.0,6,6,3,3,-4.0
86,143,waf52734,Object,1.0,5217.0,1,1,7,choice,Before,Category,Category,2,4,3.0,6,6,2,2,3.0
87,144,waf52734,Animal,0.0,3985.0,1,2,7,choice,Before,Category,Category,1,-2,-1.0,6,6,1,1,-1.0
88,145,waf52734,Scene,0.0,2391.0,1,3,7,choice,Before,Category,Category,3,-2,-6.0,6,6,3,3,-6.0
89,152,w311c43d,Food,1.0,1579.0,0,1,1,choice,After,Category,Category,1,-1,-1.0,2,2,1,2,-1.0
90,154,w311c43d,Object,0.0,1931.0,1,3,1,choice,After,Category,Category,3,-3,-3.0,2,2,1,2,-2.0
91,155,w311c43d,Blue,0.0,2680.0,1,1,2,choice,Before,Color,Color,2,-1,-1.0,5,5,1,2,-2.0
92,156,w311c43d,Green,0.0,2251.0,1,2,2,choice,Before,Color,Color,1,-2,-2.0,5,5,1,1,-2.0
93,157,w311c43d,Red,1.0,2624.0,1,3,2,choice,Before,Color,Color,3,1,1.0,5,5,3,3,1.0
94,158,w311c43d,Food,0.0,2227.0,1,1,3,choice,After,Category,Category,3,-1,-1.0,4,4,2,2,0.0
95,159,w311c43d,Scene,1.0,1875.0,1,2,3,choice,After,Category,Category,1,1,1.0,4,4,1,1,1.0
96,160,w311c43d,Animal,0.0,2699.0,1,3,3,choice,After,Category,Category,2,-1,-1.0,4,4,1,1,1.0
97,162,w311c43d,Animal,1.0,2150.0,0,2,4,choice,Before,Category,Category,3,-1,1.0,4,4,2,2,0.0
98,163,w311c43d,Scene,1.0,1522.0,1,3,4,choice,Before,Category,Category,2,1,3.0,4,4,2,2,3.0
99,165,w311c43d,Green,1.0,2596.0,1,2,5,choice,After,Color,Color,3,1,4.0,2,2,1,1,1.0
100,166,w311c43d,Yellow,0.0,738.0,1,3,5,choice,After,Color,Color,2,-3,-3.0,2,2,1,1,-1.0
101,167,w311c43d,Red,1.0,1948.0,1,1,6,choice,Before,Color,Color,2,3,3.0,5,5,1,1,4.0
102,168,w311c43d,Green,1.0,2957.0,0,2,6,choice,Before,Color,Color,3,-3,-3.0,5,5,2,2,-1.0
103,169,w311c43d,Yellow,0.0,2312.0,1,3,6,choice,Before,Color,Color,1,-2,-2.0,5,5,1,1,-2.0
104,172,w311c43d,Scene,0.0,600.0,0,3,7,choice,After,Category,Category,3,1,2.0,1,1,1,1,-2.0
105,179,wee338ab,Blue,1.0,2709.0,0,1,2,choice,Before,Color,Color,3,-2,-2.0,4,4,1,1,-2.0
106,180,wee338ab,Green,1.0,1476.0,0,2,2,choice,Before,Color,Color,1,-2,-2.0,4,4,1,2,-2.0
107,181,wee338ab,Yellow,1.0,2556.0,1,3,2,choice,Before,Color,Color,2,3,-3.0,4,4,2,3,-3.0
108,182,wee338ab,Blue,1.0,4510.0,1,1,3,choice,After,Color,Color,1,1,-1.0,5,5,1,1,-1.0
109,183,wee338ab,Red,1.0,2189.0,0,2,3,choice,After,Color,Color,2,-1,3.0,5,5,2,2,3.0
110,184,wee338ab,Green,1.0,2114.0,0,3,3,choice,After,Color,Color,3,-2,0.0,5,5,2,3,-2.0
111,185,wee338ab,Animal,1.0,4375.0,1,1,4,choice,Before,Category,Category,3,1,-3.0,4,4,1,1,-1.0
112,186,wee338ab,Scene,0.0,1564.0,1,2,4,choice,Before,Category,Category,2,-3,0.0,4,4,2,2,0.0
113,187,wee338ab,Object,0.0,4101.0,0,3,4,choice,Before,Category,Category,1,1,-2.0,4,4,1,1,-2.0
114,188,wee338ab,Animal,1.0,2451.0,0,1,5,choice,After,Category,Category,2,-1,1.0,4,4,1,2,2.0
115,189,wee338ab,Food,0.0,3697.0,0,2,5,choice,After,Category,Category,1,1,2.0,4,4,1,1,2.0
116,190,wee338ab,Object,0.0,3044.0,1,3,5,choice,After,Category,Category,3,-2,3.0,4,4,2,2,1.0
117,191,wee338ab,Object,1.0,3671.0,0,1,6,choice,Before,Category,Category,1,-1,-1.0,5,5,1,1,-1.0
118,192,wee338ab,Food,1.0,924.0,1,2,6,choice,Before,Category,Category,2,1,1.0,5,5,2,2,1.0
119,193,wee338ab,Scene,0.0,824.0,0,3,6,choice,Before,Category,Category,3,1,-3.0,5,5,2,2,-2.0
120,194,wee338ab,Blue,,,0,1,7,choice,After,Color,Color,2,-3,4.0,4,4,1,2,2.0
121,196,wee338ab,Green,0.0,3537.0,0,3,7,choice,After,Color,Color,3,3,-1.0,4,4,3,3,-1.0
122,204,wdd486da,Object,1.0,1995.0,1,2,1,choice,After,Category,Category,3,3,0.0,3,3,2,3,-2.0
123,205,wdd486da,Food,0.0,2682.0,0,3,1,choice,After,Category,Category,1,1,-1.0,3,3,1,2,-1.0
124,206,wdd486da,Object,1.0,1853.0,0,1,2,choice,Before,Category,Category,2,-3,-3.0,3,3,2,3,-3.0
125,208,wdd486da,Food,0.0,1241.0,1,3,2,choice,Before,Category,Category,1,-2,-2.0,3,3,1,1,-2.0
126,210,wdd486da,Yellow,0.0,1270.0,1,2,3,choice,After,Color,Color,3,-1,-4.0,2,2,2,3,-3.0
127,212,wdd486da,Blue,1.0,1759.0,1,1,4,choice,Before,Color,Color,2,2,3.0,4,4,1,1,1.0
128,213,wdd486da,Yellow,0.0,1435.0,1,2,4,choice,Before,Color,Color,3,-1,-3.0,4,4,2,2,-2.0
129,214,wdd486da,Red,0.0,1003.0,1,3,4,choice,Before,Color,Color,1,-2,2.0,4,4,1,2,2.0
130,216,wdd486da,Yellow,0.0,1793.0,1,2,5,choice,After,Color,Color,2,-1,-3.0,3,3,2,3,-3.0
131,217,wdd486da,Green,1.0,2040.0,0,3,5,choice,After,Color,Color,3,-2,1.0,3,3,1,1,2.0
132,218,wdd486da,Green,0.0,1133.0,0,1,6,choice,Before,Color,Color,3,1,0.0,3,3,1,1,2.0
133,219,wdd486da,Red,0.0,852.0,1,2,6,choice,Before,Color,Color,2,-2,-3.0,3,3,1,2,-2.0
134,220,wdd486da,Yellow,0.0,1020.0,0,3,6,choice,Before,Color,Color,1,2,-1.0,3,3,1,2,-1.0
135,221,wdd486da,Animal,0.0,1537.0,1,1,7,choice,After,Category,Category,1,-1,1.0,4,4,1,3,1.0
136,222,wdd486da,Scene,1.0,1051.0,1,2,7,choice,After,Category,Category,3,2,0.0,4,4,2,2,1.0
137,223,wdd486da,Object,1.0,970.0,0,3,7,choice,After,Category,Category,2,-1,-1.0,4,4,1,1,-2.0
138,231,wbe2faf8,Object,0.0,3062.0,1,2,1,choice,After,Category,Category,3,-1,-1.0,3,3,2,2,1.0
139,232,wbe2faf8,Food,1.0,2104.0,0,3,1,choice,After,Category,Category,1,-2,1.0,3,3,1,2,1.0
140,233,wbe2faf8,Green,1.0,1767.0,1,1,2,choice,Before,Color,Color,1,1,1.0,6,6,1,1,1.0
141,234,wbe2faf8,Yellow,1.0,4650.0,0,2,2,choice,Before,Color,Color,2,-4,-2.0,6,6,2,2,-2.0
142,235,wbe2faf8,Blue,0.0,2167.0,0,3,2,choice,Before,Color,Color,3,1,1.0,6,6,3,3,1.0
143,236,wbe2faf8,Animal,1.0,3319.0,1,1,3,choice,After,Category,Category,1,2,2.0,4,4,1,1,2.0
144,237,wbe2faf8,Food,1.0,4241.0,1,2,3,choice,After,Category,Category,3,2,5.0,4,4,1,1,2.0
145,238,wbe2faf8,Scene,0.0,706.0,1,3,3,choice,After,Category,Category,2,-2,-2.0,4,4,2,4,-2.0
146,239,wbe2faf8,Yellow,0.0,2409.0,1,1,4,choice,Before,Color,Color,3,-1,-5.0,5,5,2,2,-3.0
147,240,wbe2faf8,Blue,0.0,1062.0,1,2,4,choice,Before,Color,Color,2,-1,-3.0,5,5,2,2,-3.0
148,241,wbe2faf8,Red,1.0,2043.0,1,3,4,choice,Before,Color,Color,1,2,2.0,5,5,1,2,2.0
149,242,wbe2faf8,Food,1.0,3363.0,1,1,5,choice,After,Category,Category,1,1,-2.0,5,5,1,2,-2.0
150,243,wbe2faf8,Animal,0.0,1195.0,1,2,5,choice,After,Category,Category,2,-1,1.0,5,5,1,1,2.0
151,244,wbe2faf8,Object,0.0,2104.0,1,3,5,choice,After,Category,Category,3,-3,-1.0,5,5,3,3,-1.0
152,246,wbe2faf8,Blue,0.0,1026.0,0,2,6,choice,Before,Color,Color,2,1,-3.0,5,5,2,2,-3.0
153,247,wbe2faf8,Red,1.0,638.0,1,3,6,choice,Before,Color,Color,3,2,2.0,5,5,3,3,2.0
154,248,wbe2faf8,Animal,1.0,1336.0,1,1,7,choice,After,Category,Category,2,3,3.0,6,6,2,2,3.0
155,249,wbe2faf8,Scene,0.0,1177.0,1,2,7,choice,After,Category,Category,1,-2,-1.0,6,6,1,1,-1.0
156,250,wbe2faf8,Object,0.0,545.0,1,3,7,choice,After,Category,Category,3,-3,-5.0,6,6,3,3,-5.0
157,258,w6870249,Food,1.0,3752.0,0,2,1,choice,Before,Category,Category,3,-3,1.0,3,3,2,2,0.0
158,259,w6870249,Object,0.0,3190.0,0,3,1,choice,Before,Category,Category,2,2,0.0,3,3,1,1,-1.0
159,260,w6870249,Green,0.0,1893.0,1,1,2,choice,After,Color,Color,2,-4,0.0,3,3,1,1,2.0
160,261,w6870249,Yellow,1.0,1359.0,1,2,2,choice,After,Color,Color,3,2,-1.0,3,3,1,1,-1.0
161,262,w6870249,Blue,1.0,1204.0,1,3,2,choice,After,Color,Color,1,1,-1.0,3,3,1,2,-1.0
162,263,w6870249,Animal,,,0,1,3,choice,Before,Category,Category,2,-2,-3.0,5,5,1,1,-1.0
163,264,w6870249,Object,0.0,186.0,0,2,3,choice,Before,Category,Category,3,2,5.0,5,5,3,3,5.0
164,265,w6870249,Scene,1.0,693.0,1,3,3,choice,Before,Category,Category,1,2,2.0,5,5,1,1,2.0
165,266,w6870249,Food,1.0,3096.0,0,1,4,choice,After,Category,Category,1,-2,-2.0,4,4,1,1,-2.0
166,267,w6870249,Object,1.0,1492.0,1,2,4,choice,After,Category,Category,3,1,1.0,4,4,2,2,-1.0
167,268,w6870249,Animal,1.0,2014.0,1,3,4,choice,After,Category,Category,2,1,1.0,4,4,1,2,-1.0
168,269,w6870249,Blue,0.0,2464.0,1,1,5,choice,Before,Color,Color,2,-1,-2.0,3,3,1,1,-1.0
169,270,w6870249,Green,1.0,1361.0,1,2,5,choice,Before,Color,Color,3,2,2.0,3,3,1,1,2.0
170,271,w6870249,Yellow,1.0,799.0,0,3,5,choice,Before,Color,Color,1,-1,-1.0,3,3,1,2,-1.0
171,273,w6870249,Blue,0.0,1277.0,0,2,6,choice,After,Color,Color,1,2,-2.0,3,3,1,1,-2.0
172,274,w6870249,Red,1.0,520.0,1,3,6,choice,After,Color,Color,3,2,2.0,3,3,2,2,3.0
173,275,w6870249,Red,1.0,997.0,1,1,7,choice,Before,Color,Color,1,2,1.0,5,5,1,2,1.0
174,276,w6870249,Yellow,0.0,872.0,1,2,7,choice,Before,Color,Color,3,-5,-6.0,5,5,3,3,-6.0
175,277,w6870249,Green,1.0,531.0,1,3,7,choice,Before,Color,Color,2,3,4.0,5,5,1,1,2.0
176,284,w960c4a6,Scene,1.0,5934.0,0,1,1,choice,After,Category,Category,1,-2,-1.0,5,5,1,1,-1.0
177,285,w960c4a6,Food,0.0,1540.0,0,2,1,choice,After,Category,Category,3,3,-2.0,5,5,2,2,-3.0
178,286,w960c4a6,Object,1.0,4295.0,1,3,1,choice,After,Category,Category,2,1,1.0,5,5,2,2,1.0
179,287,w960c4a6,Green,0.0,1735.0,1,1,2,choice,Before,Color,Color,2,-3,-3.0,6,6,2,2,-3.0
180,288,w960c4a6,Yellow,1.0,1121.0,1,2,2,choice,Before,Color,Color,3,1,1.0,6,6,3,3,1.0
181,289,w960c4a6,Blue,1.0,1126.0,1,3,2,choice,Before,Color,Color,1,1,1.0,6,6,1,1,1.0
182,290,w960c4a6,Scene,1.0,3294.0,1,1,3,choice,After,Category,Category,1,2,2.0,5,5,1,2,2.0
183,291,w960c4a6,Animal,0.0,2677.0,1,2,3,choice,After,Category,Category,2,-3,-3.0,5,5,2,2,-3.0
184,292,w960c4a6,Object,1.0,1189.0,1,3,3,choice,After,Category,Category,3,2,2.0,5,5,2,2,3.0
185,293,w960c4a6,Yellow,0.0,2232.0,1,1,4,choice,Before,Color,Color,2,-1,0.0,4,4,1,1,1.0
186,294,w960c4a6,Blue,0.0,1291.0,1,2,4,choice,Before,Color,Color,3,-2,-2.0,4,4,2,3,-3.0
187,295,w960c4a6,Red,1.0,969.0,1,3,4,choice,Before,Color,Color,1,2,1.0,4,4,1,2,1.0
188,296,w960c4a6,Yellow,0.0,3490.0,1,1,5,choice,After,Color,Color,1,-1,1.0,5,5,1,1,1.0
189,297,w960c4a6,Green,0.0,1413.0,1,2,5,choice,After,Color,Color,3,-1,-1.0,5,5,3,3,-1.0
190,298,w960c4a6,Blue,1.0,4530.0,1,3,5,choice,After,Color,Color,2,4,0.0,5,5,1,1,1.0
191,299,w960c4a6,Scene,1.0,4744.0,1,1,6,choice,Before,Category,Category,1,1,1.0,5,5,1,1,1.0
192,300,w960c4a6,Animal,0.0,1925.0,0,2,6,choice,Before,Category,Category,2,1,1.0,5,5,1,1,-1.0
193,301,w960c4a6,Food,0.0,1863.0,1,3,6,choice,Before,Category,Category,3,-2,2.0,5,5,3,3,2.0
194,302,w960c4a6,Scene,1.0,2064.0,1,1,7,choice,After,Category,Category,3,3,2.0,4,4,2,2,3.0
195,303,w960c4a6,Food,0.0,3190.0,1,2,7,choice,After,Category,Category,2,-1,-3.0,4,4,1,2,-1.0
196,304,w960c4a6,Object,0.0,3018.0,1,3,7,choice,After,Category,Category,1,-2,-1.0,4,4,1,1,-1.0
197,312,we39fc55,Green,0.0,2026.0,0,2,1,choice,After,Color,Color,1,1,1.0,3,3,1,1,1.0
198,313,we39fc55,Blue,1.0,979.0,0,3,1,choice,After,Color,Color,2,-3,0.0,3,3,2,3,0.0
199,314,we39fc55,Scene,1.0,4727.0,0,1,2,choice,Before,Category,Category,1,-2,1.0,3,3,1,3,1.0
200,315,we39fc55,Object,0.0,4963.0,0,2,2,choice,Before,Category,Category,2,1,1.0,3,3,1,1,-1.0
201,316,we39fc55,Food,1.0,1852.0,1,3,2,choice,Before,Category,Category,3,3,5.0,3,3,1,1,1.0
202,317,we39fc55,Yellow,0.0,3910.0,1,1,3,choice,After,Color,Color,2,-4,0.0,4,4,1,1,-2.0
203,318,we39fc55,Red,0.0,2529.0,0,2,3,choice,After,Color,Color,3,3,-5.0,4,4,2,3,-3.0
204,319,we39fc55,Blue,1.0,1113.0,1,3,3,choice,After,Color,Color,1,2,2.0,4,4,1,1,2.0
205,320,we39fc55,Animal,0.0,4132.0,1,1,4,choice,Before,Category,Category,1,-2,-2.0,6,6,1,1,-2.0
206,321,we39fc55,Object,0.0,1753.0,1,2,4,choice,Before,Category,Category,2,-3,1.0,6,6,2,2,1.0
207,322,we39fc55,Food,0.0,2610.0,0,3,4,choice,Before,Category,Category,3,5,-1.0,6,6,3,3,-1.0
208,323,we39fc55,Animal,1.0,2560.0,0,1,5,choice,After,Category,Category,3,-3,1.0,3,3,1,1,2.0
209,324,we39fc55,Object,0.0,1192.0,0,2,5,choice,After,Category,Category,1,2,-1.0,3,3,1,3,-1.0
210,325,we39fc55,Scene,1.0,908.0,0,3,5,choice,After,Category,Category,2,-1,1.0,3,3,1,1,-1.0
211,326,we39fc55,Green,1.0,1838.0,0,1,6,choice,Before,Color,Color,3,-1,2.0,4,4,1,1,2.0
212,327,we39fc55,Red,0.0,2036.0,0,2,6,choice,Before,Color,Color,2,1,0.0,4,4,2,4,0.0
213,328,we39fc55,Yellow,1.0,993.0,1,3,6,choice,Before,Color,Color,1,1,-1.0,4,4,1,1,-1.0
214,329,we39fc55,Yellow,1.0,795.0,0,1,7,choice,After,Color,Color,2,-1,2.0,3,3,2,3,2.0
215,330,we39fc55,Blue,1.0,585.0,0,2,7,choice,After,Color,Color,3,-1,-5.0,3,3,1,1,-2.0
216,339,we40084a,Animal,1.0,2207.0,0,2,1,choice,After,Category,Category,3,-3,2.0,3,3,2,2,3.0
217,340,we40084a,Scene,1.0,5981.0,1,3,1,choice,After,Category,Category,2,1,-3.0,3,3,1,1,-2.0
218,341,we40084a,Food,,,0,1,2,choice,Before,Category,Category,3,2,-1.0,6,6,3,3,-1.0
219,342,we40084a,Scene,1.0,3917.0,0,2,2,choice,Before,Category,Category,1,-2,-1.0,6,6,1,1,-1.0
220,343,we40084a,Object,1.0,4291.0,1,3,2,choice,Before,Category,Category,2,1,1.0,6,6,2,2,1.0
221,344,we40084a,Blue,1.0,4509.0,1,1,3,choice,After,Color,Color,1,1,1.0,5,5,1,1,1.0
222,345,we40084a,Red,0.0,4548.0,1,2,3,choice,After,Color,Color,3,-1,-4.0,5,5,2,2,-2.0
223,346,we40084a,Yellow,0.0,3685.0,1,3,3,choice,After,Color,Color,2,-1,-3.0,5,5,2,2,-3.0
224,347,we40084a,Red,0.0,5438.0,1,1,4,choice,Before,Color,Color,3,-1,-3.0,4,4,1,1,-2.0
225,348,we40084a,Green,0.0,5320.0,1,2,4,choice,Before,Color,Color,1,-1,-1.0,4,4,1,1,-1.0
226,349,we40084a,Yellow,1.0,2817.0,1,3,4,choice,Before,Color,Color,2,2,2.0,4,4,2,2,2.0
227,350,we40084a,Green,0.0,3542.0,0,1,5,choice,After,Color,Color,3,2,-1.0,3,3,1,1,-2.0
228,351,we40084a,Red,1.0,4344.0,1,2,5,choice,After,Color,Color,2,1,0.0,3,3,1,1,-1.0
229,352,we40084a,Blue,0.0,3011.0,1,3,5,choice,After,Color,Color,1,-2,1.0,3,3,1,1,1.0
230,353,we40084a,Red,1.0,4319.0,0,1,6,choice,Before,Color,Color,2,-1,4.0,3,3,2,2,4.0
231,355,we40084a,Yellow,0.0,5598.0,0,3,6,choice,Before,Color,Color,1,1,1.0,3,3,1,1,1.0
232,356,we40084a,Food,1.0,4210.0,1,1,7,choice,After,Category,Category,1,2,2.0,4,4,1,1,2.0
233,357,we40084a,Object,0.0,4082.0,0,2,7,choice,After,Category,Category,3,1,2.0,4,4,1,1,2.0
234,358,we40084a,Scene,0.0,3560.0,1,3,7,choice,After,Category,Category,2,-3,-1.0,4,4,2,3,-1.0
235,365,w5d6df14,Food,1.0,4757.0,0,1,1,choice,After,Category,Category,1,-1,-1.0,4,4,1,1,-1.0
236,366,w5d6df14,Animal,0.0,2307.0,0,2,1,choice,After,Category,Category,2,3,4.0,4,4,1,1,2.0
237,367,w5d6df14,Object,0.0,3347.0,1,3,1,choice,After,Category,Category,3,-2,1.0,4,4,2,2,-1.0
238,368,w5d6df14,Scene,1.0,4448.0,0,1,2,choice,Before,Category,Category,3,-4,2.0,3,3,2,2,3.0
239,369,w5d6df14,Food,0.0,3928.0,0,2,2,choice,Before,Category,Category,2,3,0.0,3,3,1,2,1.0
240,371,w5d6df14,Green,1.0,4645.0,0,1,3,choice,After,Color,Color,3,-3,2.0,2,2,1,1,2.0
241,372,w5d6df14,Red,1.0,2080.0,0,2,3,choice,After,Color,Color,2,-1,-1.0,2,2,1,1,1.0
242,374,w5d6df14,Scene,1.0,2019.0,0,1,4,choice,Before,Category,Category,2,-4,-1.0,3,3,1,1,-2.0
243,375,w5d6df14,Object,0.0,4783.0,1,2,4,choice,Before,Category,Category,1,-1,-1.0,3,3,1,1,-1.0
244,376,w5d6df14,Animal,0.0,3790.0,0,3,4,choice,Before,Category,Category,3,5,5.0,3,3,1,1,2.0
245,377,w5d6df14,Yellow,0.0,5708.0,1,1,5,choice,After,Color,Color,1,-1,-1.0,4,4,1,1,-1.0
246,378,w5d6df14,Blue,1.0,2417.0,0,2,5,choice,After,Color,Color,2,-1,2.0,4,4,1,2,1.0
247,379,w5d6df14,Green,1.0,5640.0,1,3,5,choice,After,Color,Color,3,3,5.0,4,4,2,2,4.0
248,381,w5d6df14,Food,1.0,2346.0,1,2,6,choice,Before,Category,Category,2,2,3.0,3,3,1,1,2.0
249,382,w5d6df14,Scene,1.0,3146.0,0,3,6,choice,Before,Category,Category,3,-1,-1.0,3,3,2,2,0.0
250,383,w5d6df14,Red,1.0,5866.0,0,1,7,choice,After,Color,Color,1,-2,-2.0,4,4,1,2,-2.0
251,384,w5d6df14,Green,0.0,1406.0,1,2,7,choice,After,Color,Color,3,-2,-4.0,4,4,2,2,-3.0
252,385,w5d6df14,Blue,0.0,3131.0,0,3,7,choice,After,Color,Color,2,3,-2.0,4,4,1,1,-1.0
253,392,w6cbe87c,Scene,1.0,3436.0,1,1,1,choice,After,Category,Category,1,1,0.0,3,3,1,1,0.0
254,393,w6cbe87c,Object,0.0,3721.0,1,2,1,choice,After,Category,Category,2,-2,0.0,3,3,1,2,0.0
255,394,w6cbe87c,Food,0.0,2227.0,0,3,1,choice,After,Category,Category,3,2,0.0,3,3,1,1,0.0
256,395,w6cbe87c,Green,0.0,2084.0,1,1,2,choice,Before,Color,Color,2,-4,0.0,4,4,1,2,0.0
257,396,w6cbe87c,Yellow,1.0,947.0,1,2,2,choice,Before,Color,Color,3,1,0.0,4,4,2,2,0.0
258,397,w6cbe87c,Blue,1.0,889.0,1,3,2,choice,Before,Color,Color,1,1,0.0,4,4,1,2,0.0
259,398,w6cbe87c,Scene,0.0,1989.0,0,1,3,choice,After,Category,Category,1,2,0.0,2,2,1,2,0.0
260,400,w6cbe87c,Animal,0.0,1511.0,0,3,3,choice,After,Category,Category,2,1,0.0,2,2,1,2,0.0
261,401,w6cbe87c,Animal,0.0,3092.0,1,1,4,choice,Before,Category,Category,2,-4,0.0,5,5,1,1,0.0
262,402,w6cbe87c,Object,1.0,984.0,1,2,4,choice,Before,Category,Category,3,2,0.0,5,5,3,3,0.0
263,403,w6cbe87c,Food,1.0,1995.0,1,3,4,choice,Before,Category,Category,1,2,0.0,5,5,1,1,0.0
264,406,w6cbe87c,Animal,0.0,475.0,1,3,5,choice,After,Category,Category,2,-3,0.0,1,1,1,1,0.0
265,407,w6cbe87c,Red,1.0,1443.0,1,1,6,choice,Before,Color,Color,3,1,0.0,1,1,1,1,0.0
266,410,w6cbe87c,Red,1.0,816.0,1,1,7,choice,After,Color,Color,1,1,0.0,2,2,1,2,0.0
267,411,w6cbe87c,Yellow,0.0,1042.0,1,2,7,choice,After,Color,Color,3,-2,0.0,2,2,1,1,0.0
268,419,w4db7ccb,Food,1.0,7298.0,1,1,1,choice,After,Category,Category,1,2,2.0,6,6,1,1,2.0
269,420,w4db7ccb,Animal,,,0,2,1,choice,After,Category,Category,2,-3,-3.0,6,6,2,2,-3.0
270,421,w4db7ccb,Object,,,0,3,1,choice,After,Category,Category,3,2,2.0,6,6,3,3,2.0
271,422,w4db7ccb,Blue,1.0,4910.0,1,1,2,choice,Before,Color,Color,3,1,-1.0,6,6,3,3,-1.0
272,423,w4db7ccb,Yellow,0.0,2748.0,1,2,2,choice,Before,Color,Color,2,-3,-2.0,6,6,2,2,-2.0
273,424,w4db7ccb,Green,0.0,3519.0,0,3,2,choice,Before,Color,Color,1,2,2.0,6,6,1,1,2.0
274,425,w4db7ccb,Scene,0.0,2727.0,1,1,3,choice,After,Category,Category,2,-1,-1.0,6,6,2,2,-1.0
275,426,w4db7ccb,Food,0.0,2127.0,1,2,3,choice,After,Category,Category,3,-1,-1.0,6,6,3,3,-1.0
276,427,w4db7ccb,Animal,1.0,685.0,1,3,3,choice,After,Category,Category,1,2,2.0,6,6,1,1,2.0
277,428,w4db7ccb,Animal,1.0,1811.0,1,1,4,choice,Before,Category,Category,3,1,-1.0,5,5,2,3,0.0
278,429,w4db7ccb,Object,0.0,2607.0,1,2,4,choice,Before,Category,Category,1,-2,-1.0,5,5,1,1,-1.0
279,430,w4db7ccb,Scene,1.0,715.0,0,3,4,choice,Before,Category,Category,2,-1,-2.0,5,5,2,2,-2.0
280,431,w4db7ccb,Blue,0.0,2737.0,1,1,5,choice,After,Color,Color,2,-2,-2.0,6,6,2,2,-2.0
281,432,w4db7ccb,Yellow,0.0,1346.0,1,2,5,choice,After,Color,Color,1,-1,-1.0,6,6,1,1,-1.0
282,433,w4db7ccb,Green,1.0,698.0,1,3,5,choice,After,Color,Color,3,5,5.0,6,6,3,3,5.0
283,434,w4db7ccb,Scene,,,0,1,6,choice,Before,Category,Category,3,-1,-1.0,6,6,3,3,-1.0
284,435,w4db7ccb,Food,0.0,2359.0,0,2,6,choice,Before,Category,Category,2,4,4.0,6,6,2,2,4.0
285,436,w4db7ccb,Object,0.0,2726.0,1,3,6,choice,Before,Category,Category,1,-2,-2.0,6,6,1,1,-2.0
286,437,w4db7ccb,Red,1.0,1841.0,1,1,7,choice,After,Color,Color,1,2,2.0,5,5,1,1,2.0
287,438,w4db7ccb,Green,0.0,1331.0,1,2,7,choice,After,Color,Color,3,-2,-2.0,5,5,3,3,-2.0
288,439,w4db7ccb,Blue,1.0,1041.0,1,3,7,choice,After,Color,Color,2,1,1.0,5,5,1,2,2.0
289,447,w9a08173,Blue,0.0,3190.0,1,2,1,choice,After,Color,Color,3,-1,-4.0,3,3,2,2,-3.0
290,448,w9a08173,Green,1.0,2531.0,1,3,1,choice,After,Color,Color,2,4,1.0,3,3,1,1,2.0
291,449,w9a08173,Blue,1.0,2450.0,1,1,2,choice,Before,Color,Color,2,1,1.0,3,3,1,2,2.0
292,450,w9a08173,Red,0.0,1746.0,0,2,2,choice,Before,Color,Color,3,3,-3.0,3,3,2,2,-2.0
293,452,w9a08173,Food,1.0,3261.0,0,1,3,choice,After,Category,Category,3,-2,-4.0,4,4,2,2,-2.0
294,453,w9a08173,Animal,1.0,2343.0,1,2,3,choice,After,Category,Category,2,1,0.0,4,4,1,2,1.0
295,454,w9a08173,Scene,1.0,1805.0,1,3,3,choice,After,Category,Category,1,2,-2.0,4,4,1,1,-2.0
296,455,w9a08173,Yellow,1.0,1879.0,0,1,4,choice,Before,Color,Color,3,-2,-3.0,5,5,2,2,-2.0
297,456,w9a08173,Red,0.0,1716.0,1,2,4,choice,Before,Color,Color,1,-2,-2.0,5,5,1,1,-2.0
298,457,w9a08173,Blue,1.0,2079.0,1,3,4,choice,Before,Color,Color,2,3,-3.0,5,5,2,2,-3.0
299,458,w9a08173,Scene,1.0,1760.0,1,1,5,choice,After,Category,Category,1,2,-2.0,3,3,1,2,-2.0
300,459,w9a08173,Animal,1.0,1743.0,0,2,5,choice,After,Category,Category,2,-2,-2.0,3,3,1,2,-1.0
301,460,w9a08173,Food,0.0,2150.0,0,3,5,choice,After,Category,Category,3,2,-4.0,3,3,1,1,-1.0
302,461,w9a08173,Food,1.0,1850.0,1,1,6,choice,Before,Category,Category,3,3,-4.0,3,3,1,1,-1.0
303,462,w9a08173,Scene,1.0,1810.0,0,2,6,choice,Before,Category,Category,2,-1,-3.0,3,3,2,2,-3.0
304,464,w9a08173,Scene,1.0,1198.0,1,1,7,choice,After,Category,Category,3,2,-1.0,3,3,2,3,1.0
305,465,w9a08173,Animal,1.0,1588.0,0,2,7,choice,After,Category,Category,1,-2,-1.0,3,3,1,2,-1.0
306,467,w3002e39,Blue,1.0,4532.0,0,1,1,choice,After,Color,Color,3,-1,2.0,5,5,2,2,0.0
307,468,w3002e39,Yellow,1.0,6752.0,1,2,1,choice,After,Color,Color,2,2,3.0,5,5,2,3,3.0
308,469,w3002e39,Red,0.0,5943.0,1,3,1,choice,After,Color,Color,1,-2,-2.0,5,5,1,1,-2.0
309,470,w3002e39,Scene,,,0,1,2,choice,Before,Category,Category,2,3,2.0,4,4,1,1,1.0
310,471,w3002e39,Object,0.0,4370.0,1,2,2,choice,Before,Category,Category,1,-1,-1.0,4,4,1,1,-1.0
311,472,w3002e39,Food,0.0,2418.0,1,3,2,choice,Before,Category,Category,3,-3,-3.0,4,4,2,2,-1.0
312,473,w3002e39,Animal,1.0,2845.0,1,1,3,choice,After,Category,Category,3,4,4.0,3,3,2,2,3.0
313,474,w3002e39,Object,0.0,2140.0,1,2,3,choice,After,Category,Category,2,-4,-4.0,3,3,1,1,-2.0
314,476,w3002e39,Green,0.0,1544.0,1,1,4,choice,Before,Color,Color,2,-1,3.0,4,4,1,1,2.0
315,477,w3002e39,Red,1.0,1152.0,1,2,4,choice,Before,Color,Color,3,2,2.0,4,4,3,3,2.0
316,479,w3002e39,Green,0.0,1621.0,1,1,5,choice,After,Color,Color,3,-4,-4.0,4,4,2,2,-3.0
317,480,w3002e39,Yellow,1.0,2552.0,1,2,5,choice,After,Color,Color,1,1,1.0,4,4,1,1,1.0
318,481,w3002e39,Red,1.0,1836.0,1,3,5,choice,After,Color,Color,2,4,4.0,4,4,1,2,2.0
319,482,w3002e39,Scene,0.0,2697.0,1,1,6,choice,Before,Category,Category,1,-2,2.0,5,5,1,1,2.0
320,483,w3002e39,Food,1.0,3526.0,1,2,6,choice,Before,Category,Category,3,3,0.0,5,5,2,2,1.0
321,484,w3002e39,Animal,1.0,4055.0,1,3,6,choice,Before,Category,Category,2,1,-2.0,5,5,2,2,-2.0
322,486,w3002e39,Green,1.0,826.0,0,2,7,choice,After,Color,Color,3,-2,-2.0,3,3,2,2,0.0
323,487,w3002e39,Blue,0.0,2585.0,0,3,7,choice,After,Color,Color,2,3,0.0,3,3,1,2,1.0
324,494,w7a38a77,Food,0.0,2524.0,1,1,1,choice,After,Category,Category,1,-2,-2.0,3,3,1,1,-2.0
325,495,w7a38a77,Animal,1.0,1288.0,1,2,1,choice,After,Category,Category,2,3,1.0,3,3,1,2,2.0
326,496,w7a38a77,Object,0.0,3158.0,1,3,1,choice,After,Category,Category,3,-2,2.0,3,3,1,1,2.0
327,497,w7a38a77,Blue,1.0,1016.0,1,1,2,choice,Before,Color,Color,3,1,2.0,5,5,2,2,1.0
328,498,w7a38a77,Green,0.0,1106.0,1,2,2,choice,Before,Color,Color,1,-1,-1.0,5,5,1,1,-1.0
329,499,w7a38a77,Yellow,1.0,2550.0,0,3,2,choice,Before,Color,Color,2,-1,-1.0,5,5,2,2,-1.0
330,500,w7a38a77,Scene,1.0,919.0,0,1,3,choice,After,Category,Category,2,-2,3.0,5,5,2,2,3.0
331,501,w7a38a77,Animal,1.0,2351.0,1,2,3,choice,After,Category,Category,1,2,2.0,5,5,1,1,2.0
332,502,w7a38a77,Food,0.0,699.0,0,3,3,choice,After,Category,Category,3,1,0.0,5,5,2,3,1.0
333,503,w7a38a77,Red,0.0,1884.0,1,1,4,choice,Before,Color,Color,1,-2,-1.0,3,3,1,2,-1.0
334,504,w7a38a77,Blue,1.0,3417.0,1,2,4,choice,Before,Color,Color,2,1,-3.0,3,3,1,2,-1.0
335,505,w7a38a77,Yellow,1.0,764.0,1,3,4,choice,Before,Color,Color,3,3,0.0,3,3,1,1,1.0
336,506,w7a38a77,Animal,,,0,1,5,choice,After,Category,Category,2,-1,0.0,3,3,2,2,0.0
337,508,w7a38a77,Object,1.0,1932.0,0,3,5,choice,After,Category,Category,3,-3,-3.0,3,3,1,1,-2.0
338,509,w7a38a77,Blue,0.0,1880.0,1,1,6,choice,Before,Color,Color,2,-3,-3.0,5,5,2,2,-3.0
339,510,w7a38a77,Red,1.0,1243.0,1,2,6,choice,Before,Color,Color,3,1,1.0,5,5,2,2,0.0
340,511,w7a38a77,Yellow,1.0,580.0,1,3,6,choice,Before,Color,Color,1,2,1.0,5,5,1,1,1.0
341,512,w7a38a77,Red,0.0,1597.0,0,1,7,choice,After,Color,Color,1,1,-1.0,4,4,1,2,-1.0
342,513,w7a38a77,Green,1.0,599.0,1,2,7,choice,After,Color,Color,3,1,1.0,4,4,3,3,1.0
343,521,wcd98054,Blue,1.0,4749.0,1,1,1,choice,Before,Color,Color,3,6,6.0,6,6,3,3,6.0
344,522,wcd98054,Red,0.0,987.0,1,2,1,choice,Before,Color,Color,1,-1,-1.0,6,6,1,1,-1.0
345,523,wcd98054,Green,0.0,755.0,1,3,1,choice,Before,Color,Color,2,-3,-3.0,6,6,2,2,-3.0
346,524,wcd98054,Food,0.0,4244.0,1,1,2,choice,After,Category,Category,2,-2,-2.0,6,6,2,2,-2.0
347,525,wcd98054,Animal,1.0,1745.0,1,2,2,choice,After,Category,Category,1,1,1.0,6,6,1,1,1.0
348,526,wcd98054,Scene,1.0,994.0,1,3,2,choice,After,Category,Category,3,2,4.0,6,6,3,3,4.0
349,527,wcd98054,Animal,,,0,1,3,choice,Before,Category,Category,2,-2,-3.0,4,4,1,2,-2.0
350,528,wcd98054,Scene,1.0,2702.0,1,2,3,choice,Before,Category,Category,1,1,1.0,4,4,1,1,1.0
351,529,wcd98054,Object,1.0,4009.0,1,3,3,choice,Before,Category,Category,3,1,1.0,4,4,2,2,0.0
352,530,wcd98054,Yellow,1.0,2568.0,0,1,4,choice,After,Color,Color,2,-3,2.0,3,3,1,1,1.0
353,532,wcd98054,Blue,0.0,4667.0,0,3,4,choice,After,Color,Color,3,3,2.0,3,3,2,2,0.0
354,533,wcd98054,Animal,0.0,3359.0,1,1,5,choice,Before,Category,Category,2,-3,-2.0,6,6,2,2,-2.0
355,534,wcd98054,Object,1.0,5151.0,1,2,5,choice,Before,Category,Category,1,1,1.0,6,6,1,1,1.0
356,535,wcd98054,Scene,1.0,3436.0,1,3,5,choice,Before,Category,Category,3,2,2.0,6,6,3,3,2.0
357,536,wcd98054,Animal,1.0,3474.0,1,1,6,choice,After,Category,Category,2,3,3.0,1,1,1,1,2.0
358,539,wcd98054,Green,1.0,4874.0,0,1,7,choice,Before,Color,Color,2,-1,1.0,5,5,2,2,1.0
359,540,wcd98054,Red,1.0,3971.0,1,2,7,choice,Before,Color,Color,1,2,2.0,5,5,1,1,2.0
360,541,wcd98054,Yellow,0.0,3937.0,1,3,7,choice,Before,Color,Color,3,-1,3.0,5,5,2,3,1.0
361,549,wab70ec3,Scene,0.0,4142.0,1,2,1,choice,Before,Category,Category,2,-4,-4.0,3,3,2,3,-4.0
362,550,wab70ec3,Animal,1.0,2516.0,1,3,1,choice,Before,Category,Category,3,3,2.0,3,3,1,1,1.0
363,551,wab70ec3,Blue,1.0,2958.0,1,1,2,choice,After,Color,Color,2,2,1.0,4,4,1,2,-1.0
364,552,wab70ec3,Green,0.0,5087.0,1,2,2,choice,After,Color,Color,3,-2,-2.0,4,4,2,2,-3.0
365,553,wab70ec3,Red,1.0,984.0,0,3,2,choice,After,Color,Color,1,-1,-1.0,4,4,1,2,-1.0
366,555,wab70ec3,Yellow,1.0,2761.0,1,2,3,choice,Before,Color,Color,2,4,1.0,3,3,2,2,1.0
367,556,wab70ec3,Blue,0.0,1018.0,1,3,3,choice,Before,Color,Color,1,-2,-2.0,3,3,1,2,-2.0
368,557,wab70ec3,Green,0.0,4133.0,0,1,4,choice,After,Color,Color,1,1,2.0,2,2,1,1,2.0
369,558,wab70ec3,Red,1.0,1703.0,0,2,4,choice,After,Color,Color,3,-1,0.0,2,2,1,2,-1.0
370,560,wab70ec3,Green,1.0,2162.0,1,1,5,choice,Before,Color,Color,3,1,1.0,4,4,2,3,0.0
371,561,wab70ec3,Blue,0.0,5683.0,0,2,5,choice,Before,Color,Color,1,1,1.0,4,4,1,1,1.0
372,562,wab70ec3,Red,1.0,4431.0,0,3,5,choice,Before,Color,Color,2,-2,-1.0,4,4,1,2,-2.0
373,563,wab70ec3,Scene,1.0,4832.0,1,1,6,choice,After,Category,Category,2,2,2.0,4,4,2,2,2.0
374,564,wab70ec3,Food,1.0,4274.0,0,2,6,choice,After,Category,Category,3,-2,-1.0,4,4,2,2,-2.0
375,566,wab70ec3,Scene,1.0,1588.0,1,1,7,choice,Before,Category,Category,2,1,3.0,1,1,1,3,1.0
376,575,w6a59bb5,Object,1.0,3257.0,0,1,1,choice,Before,Category,Category,3,-1,-1.0,5,5,3,3,-1.0
377,577,w6a59bb5,Animal,0.0,1493.0,1,3,1,choice,Before,Category,Category,2,-1,-3.0,5,5,2,2,-3.0
378,578,w6a59bb5,Red,1.0,2079.0,1,1,2,choice,After,Color,Color,3,2,4.0,5,5,2,2,2.0
379,579,w6a59bb5,Blue,0.0,1616.0,1,2,2,choice,After,Color,Color,2,-4,-2.0,5,5,2,3,-2.0
380,580,w6a59bb5,Green,1.0,1037.0,1,3,2,choice,After,Color,Color,1,1,1.0,5,5,1,1,1.0
381,581,w6a59bb5,Animal,1.0,1961.0,1,1,3,choice,Before,Category,Category,2,1,1.0,6,6,2,2,1.0
382,582,w6a59bb5,Scene,1.0,4327.0,1,2,3,choice,Before,Category,Category,1,1,-1.0,6,6,1,1,-1.0
383,583,w6a59bb5,Food,1.0,3025.0,0,3,3,choice,Before,Category,Category,3,-1,3.0,6,6,3,3,3.0
384,584,w6a59bb5,Yellow,1.0,2847.0,0,1,4,choice,After,Color,Color,3,-2,0.0,4,4,2,2,-1.0
385,585,w6a59bb5,Blue,1.0,1850.0,1,2,4,choice,After,Color,Color,2,4,0.0,4,4,1,1,-1.0
386,586,w6a59bb5,Red,1.0,2021.0,0,3,4,choice,After,Color,Color,1,-1,-1.0,4,4,1,1,-1.0
387,587,w6a59bb5,Scene,0.0,3005.0,0,1,5,choice,Before,Category,Category,1,2,1.0,5,5,1,1,1.0
388,588,w6a59bb5,Animal,1.0,2457.0,1,2,5,choice,Before,Category,Category,2,3,3.0,5,5,1,1,1.0
389,589,w6a59bb5,Food,1.0,2162.0,0,3,5,choice,Before,Category,Category,3,-4,1.0,5,5,3,3,1.0
390,590,w6a59bb5,Object,0.0,1748.0,1,1,6,choice,After,Category,Category,1,-1,-1.0,6,6,1,1,-1.0
391,591,w6a59bb5,Food,1.0,1389.0,1,2,6,choice,After,Category,Category,3,2,-1.0,6,6,3,3,-1.0
392,592,w6a59bb5,Scene,1.0,863.0,1,3,6,choice,After,Category,Category,2,1,1.0,6,6,2,2,1.0
393,593,w6a59bb5,Red,0.0,2766.0,0,1,7,choice,Before,Color,Color,3,2,-2.0,5,5,3,3,-2.0
394,594,w6a59bb5,Blue,1.0,1916.0,1,2,7,choice,Before,Color,Color,1,1,1.0,5,5,1,2,1.0
395,595,w6a59bb5,Yellow,0.0,1595.0,1,3,7,choice,Before,Color,Color,2,-3,-3.0,5,5,1,1,-1.0
396,602,w88e738d,Object,,,0,1,1,choice,After,Category,Category,3,-4,-2.0,3,3,1,1,-2.0
397,603,w88e738d,Animal,0.0,4968.0,0,2,1,choice,After,Category,Category,2,4,3.0,3,3,1,1,2.0
398,604,w88e738d,Food,1.0,5805.0,1,3,1,choice,After,Category,Category,1,1,-2.0,3,3,1,2,-2.0
399,605,w88e738d,Object,0.0,4015.0,1,1,2,choice,Before,Category,Category,1,-1,-1.0,6,6,1,1,-1.0
400,606,w88e738d,Food,1.0,1617.0,1,2,2,choice,Before,Category,Category,2,3,3.0,6,6,2,2,3.0
401,607,w88e738d,Scene,1.0,3730.0,0,3,2,choice,Before,Category,Category,3,-2,-2.0,6,6,3,3,-2.0
402,608,w88e738d,Red,0.0,3096.0,0,1,3,choice,After,Color,Color,2,1,-2.0,6,6,2,2,-2.0
403,609,w88e738d,Blue,1.0,1765.0,1,2,3,choice,After,Color,Color,1,2,2.0,6,6,1,1,2.0
404,610,w88e738d,Green,1.0,855.0,0,3,3,choice,After,Color,Color,3,-2,0.0,6,6,3,3,0.0
405,611,w88e738d,Scene,1.0,3344.0,1,1,4,choice,Before,Category,Category,2,1,0.0,3,3,1,3,-1.0
406,612,w88e738d,Object,1.0,4343.0,1,2,4,choice,Before,Category,Category,1,1,1.0,3,3,1,1,1.0
407,613,w88e738d,Animal,,,0,3,4,choice,Before,Category,Category,3,-1,2.0,3,3,1,2,1.0
408,614,w88e738d,Green,0.0,3083.0,0,1,5,choice,After,Color,Color,3,5,4.0,2,2,1,1,1.0
409,616,w88e738d,Yellow,1.0,1752.0,0,3,5,choice,After,Color,Color,1,-1,-1.0,2,2,1,1,-1.0
410,617,w88e738d,Red,0.0,1780.0,1,1,6,choice,Before,Color,Color,3,-4,-5.0,6,6,3,3,-5.0
411,618,w88e738d,Yellow,0.0,1383.0,0,2,6,choice,Before,Color,Color,1,1,1.0,6,6,1,1,1.0
412,619,w88e738d,Blue,1.0,946.0,1,3,6,choice,Before,Color,Color,2,4,3.0,6,6,2,2,3.0
413,620,w88e738d,Scene,0.0,3210.0,1,1,7,choice,After,Category,Category,1,-2,-2.0,5,5,1,1,-2.0
414,621,w88e738d,Animal,1.0,1271.0,1,2,7,choice,After,Category,Category,2,4,3.0,5,5,2,2,3.0
415,622,w88e738d,Object,0.0,2895.0,1,3,7,choice,After,Category,Category,3,-1,-1.0,5,5,2,3,0.0
416,643,w7a2af65,Scene,1.0,4670.0,0,1,1,choice,After,Category,Category,3,-3,0.0,5,5,2,2,-1.0
417,644,w7a2af65,Food,1.0,3054.0,0,2,1,choice,After,Category,Category,1,-2,-2.0,5,5,1,1,-2.0
418,645,w7a2af65,Animal,0.0,1262.0,0,3,1,choice,After,Category,Category,2,3,3.0,5,5,2,2,3.0
419,646,w7a2af65,Food,1.0,4956.0,1,1,2,choice,Before,Category,Category,3,2,2.0,6,6,3,3,2.0
420,647,w7a2af65,Scene,1.0,3156.0,0,2,2,choice,Before,Category,Category,2,-1,0.0,6,6,2,2,0.0
421,648,w7a2af65,Object,0.0,3787.0,1,3,2,choice,Before,Category,Category,1,-1,-1.0,6,6,1,1,-1.0
422,649,w7a2af65,Green,,,0,1,3,choice,After,Color,Color,1,-1,1.0,2,2,1,1,1.0
423,650,w7a2af65,Yellow,0.0,2248.0,0,2,3,choice,After,Color,Color,3,3,0.0,2,2,1,1,2.0
424,654,w7a2af65,Object,0.0,1170.0,0,3,4,choice,Before,Category,Category,3,4,2.0,1,1,1,2,2.0
425,655,w7a2af65,Red,1.0,1261.0,1,1,5,choice,After,Color,Color,2,3,0.0,4,4,1,1,2.0
426,656,w7a2af65,Green,1.0,809.0,0,2,5,choice,After,Color,Color,3,-1,1.0,4,4,2,2,0.0
427,657,w7a2af65,Yellow,0.0,595.0,1,3,5,choice,After,Color,Color,1,-2,-1.0,4,4,1,2,-1.0
428,658,w7a2af65,Green,1.0,2096.0,0,1,7,choice,After,Color,Color,3,-3,1.0,2,2,2,2,0.0
429,661,w299c268,Scene,0.0,4259.0,1,1,1,choice,After,Category,Category,3,-2,-2.0,6,6,3,3,-2.0
430,662,w299c268,Animal,1.0,3547.0,0,2,1,choice,After,Category,Category,2,-1,-1.0,6,6,2,2,-1.0
431,663,w299c268,Food,1.0,4556.0,1,3,1,choice,After,Category,Category,1,2,2.0,6,6,1,1,2.0
432,664,w299c268,Scene,1.0,2577.0,1,1,2,choice,Before,Category,Category,2,3,3.0,6,6,2,2,3.0
433,665,w299c268,Food,1.0,6257.0,0,2,2,choice,Before,Category,Category,3,-2,2.0,6,6,3,3,2.0
434,666,w299c268,Object,0.0,2563.0,1,3,2,choice,Before,Category,Category,1,-1,-1.0,6,6,1,1,-1.0
435,667,w299c268,Object,0.0,3861.0,1,1,3,choice,After,Category,Category,2,-3,-3.0,6,6,2,2,-3.0
436,668,w299c268,Food,1.0,3590.0,1,2,3,choice,After,Category,Category,1,2,2.0,6,6,1,1,2.0
437,669,w299c268,Animal,0.0,6569.0,0,3,3,choice,After,Category,Category,3,1,-1.0,6,6,3,3,-1.0
438,670,w299c268,Blue,1.0,5681.0,1,1,4,choice,Before,Color,Color,1,1,1.0,4,4,1,1,1.0
439,671,w299c268,Green,1.0,5886.0,1,2,4,choice,Before,Color,Color,2,1,3.0,4,4,1,2,2.0
440,672,w299c268,Red,0.0,1852.0,1,3,4,choice,Before,Color,Color,3,-2,-4.0,4,4,2,2,-3.0
441,673,w299c268,Yellow,1.0,3316.0,1,1,5,choice,After,Color,Color,1,2,1.0,6,6,1,1,1.0
442,674,w299c268,Red,0.0,4009.0,0,2,5,choice,After,Color,Color,2,1,-3.0,6,6,2,2,-3.0
443,675,w299c268,Green,0.0,763.0,1,3,5,choice,After,Color,Color,3,-1,-1.0,6,6,3,3,-1.0
444,676,w299c268,Animal,1.0,4376.0,1,1,6,choice,Before,Category,Category,2,1,3.0,5,5,2,3,3.0
445,677,w299c268,Scene,1.0,1309.0,1,2,6,choice,Before,Category,Category,1,1,1.0,5,5,1,1,1.0
446,678,w299c268,Food,0.0,937.0,1,3,6,choice,Before,Category,Category,3,-3,-2.0,5,5,2,2,-4.0
447,679,w299c268,Blue,1.0,5704.0,0,1,7,choice,After,Color,Color,2,-1,-1.0,6,6,2,2,-1.0
448,680,w299c268,Green,0.0,4340.0,0,2,7,choice,After,Color,Color,3,2,2.0,6,6,3,3,2.0
449,681,w299c268,Yellow,1.0,5656.0,0,3,7,choice,After,Color,Color,1,-2,-2.0,6,6,1,1,-2.0
450,688,w9a0bd8d,Yellow,0.0,4776.0,1,1,1,choice,After,Color,Color,2,-1,-3.0,5,5,2,2,-3.0
451,689,w9a0bd8d,Red,1.0,5373.0,0,2,1,choice,After,Color,Color,1,-1,2.0,5,5,1,1,2.0
452,690,w9a0bd8d,Blue,1.0,616.0,1,3,1,choice,After,Color,Color,3,3,3.0,5,5,2,2,1.0
453,691,w9a0bd8d,Food,,,0,1,2,choice,Before,Category,Category,3,2,2.0,5,5,2,3,0.0
454,692,w9a0bd8d,Scene,1.0,3027.0,0,2,2,choice,Before,Category,Category,2,-3,0.0,5,5,2,2,0.0
455,693,w9a0bd8d,Object,1.0,1202.0,1,3,2,choice,Before,Category,Category,1,2,2.0,5,5,1,1,2.0
456,695,w9a0bd8d,Object,0.0,2865.0,1,2,3,choice,After,Category,Category,2,-1,-1.0,4,4,2,2,-1.0
457,696,w9a0bd8d,Animal,1.0,2185.0,1,3,3,choice,After,Category,Category,3,1,4.0,4,4,2,2,2.0
458,697,w9a0bd8d,Blue,1.0,1315.0,1,1,4,choice,Before,Color,Color,1,1,1.0,6,6,1,1,1.0
459,698,w9a0bd8d,Red,1.0,1144.0,1,2,4,choice,Before,Color,Color,3,1,1.0,6,6,3,3,1.0
460,699,w9a0bd8d,Green,0.0,449.0,1,3,4,choice,Before,Color,Color,2,-3,-2.0,6,6,2,2,-2.0
461,700,w9a0bd8d,Animal,0.0,2225.0,1,1,5,choice,After,Category,Category,1,-1,-2.0,5,5,1,1,-2.0
462,701,w9a0bd8d,Scene,1.0,846.0,1,2,5,choice,After,Category,Category,2,3,0.0,5,5,1,1,2.0
463,702,w9a0bd8d,Object,1.0,2151.0,0,3,5,choice,After,Category,Category,3,-3,-1.0,5,5,3,4,-1.0
464,703,w9a0bd8d,Blue,1.0,909.0,1,1,6,choice,Before,Color,Color,3,2,2.0,5,5,2,2,0.0
465,704,w9a0bd8d,Red,0.0,540.0,1,2,6,choice,Before,Color,Color,2,-1,-3.0,5,5,2,3,-3.0
466,705,w9a0bd8d,Green,0.0,946.0,1,3,6,choice,Before,Color,Color,1,-2,-1.0,5,5,1,1,-1.0
467,706,w9a0bd8d,Object,1.0,1468.0,1,1,7,choice,After,Category,Category,2,1,1.0,3,3,1,1,-1.0
468,707,w9a0bd8d,Food,1.0,1602.0,0,2,7,choice,After,Category,Category,1,-1,2.0,3,3,1,1,2.0
469,708,w9a0bd8d,Scene,1.0,1758.0,1,3,7,choice,After,Category,Category,3,1,1.0,3,3,1,2,1.0
470,715,w1d9c2fb,Animal,,,0,1,1,choice,After,Category,Category,2,2,-1.0,1,1,1,2,-2.0
471,718,w1d9c2fb,Blue,1.0,5289.0,0,1,2,choice,Before,Color,Color,2,-1,0.0,6,6,2,2,0.0
472,719,w1d9c2fb,Red,1.0,837.0,1,2,2,choice,Before,Color,Color,3,3,2.0,6,6,3,3,2.0
473,720,w1d9c2fb,Green,0.0,2605.0,1,3,2,choice,Before,Color,Color,1,-1,-2.0,6,6,1,1,-2.0
474,721,w1d9c2fb,Yellow,0.0,4072.0,1,1,3,choice,After,Color,Color,3,-2,-4.0,6,6,3,3,-4.0
475,722,w1d9c2fb,Red,1.0,2973.0,1,2,3,choice,After,Color,Color,2,3,2.0,6,6,2,2,2.0
476,723,w1d9c2fb,Green,1.0,5509.0,0,3,3,choice,After,Color,Color,1,-1,1.0,6,6,1,1,1.0
477,724,w1d9c2fb,Animal,1.0,3726.0,0,1,4,choice,Before,Category,Category,3,-1,-4.0,6,6,3,3,-4.0
478,725,w1d9c2fb,Object,1.0,2574.0,0,2,4,choice,Before,Category,Category,1,-1,1.0,6,6,1,1,1.0
479,726,w1d9c2fb,Scene,0.0,3300.0,0,3,4,choice,Before,Category,Category,2,3,0.0,6,6,2,2,0.0
480,727,w1d9c2fb,Green,1.0,5270.0,1,1,5,choice,After,Color,Color,3,1,-2.0,6,6,3,3,-2.0
481,728,w1d9c2fb,Blue,1.0,2653.0,1,2,5,choice,After,Color,Color,1,2,1.0,6,6,1,1,1.0
482,729,w1d9c2fb,Yellow,0.0,1402.0,1,3,5,choice,After,Color,Color,2,-3,-2.0,6,6,2,2,-2.0
483,730,w1d9c2fb,Food,1.0,1613.0,1,1,6,choice,Before,Category,Category,3,1,-2.0,5,5,2,2,-3.0
484,731,w1d9c2fb,Scene,0.0,2106.0,1,2,6,choice,Before,Category,Category,2,-3,-3.0,5,5,2,2,-3.0
485,732,w1d9c2fb,Object,0.0,3094.0,0,3,6,choice,Before,Category,Category,1,2,2.0,5,5,1,1,2.0
486,733,w1d9c2fb,Red,0.0,4681.0,1,1,7,choice,After,Color,Color,3,-1,-2.0,5,5,3,4,-2.0
487,734,w1d9c2fb,Blue,0.0,3365.0,1,2,7,choice,After,Color,Color,1,-2,-1.0,5,5,1,1,-1.0
488,735,w1d9c2fb,Yellow,1.0,658.0,1,3,7,choice,After,Color,Color,2,2,2.0,5,5,1,1,1.0
489,742,wb361f36,Yellow,0.0,2060.0,1,1,1,choice,After,Color,Color,2,-3,-4.0,4,4,2,2,-4.0
490,743,wb361f36,Blue,0.0,2282.0,0,2,1,choice,After,Color,Color,3,2,-1.0,4,4,2,2,0.0
491,745,wb361f36,Green,0.0,2690.0,0,1,2,choice,Before,Color,Color,2,4,0.0,4,4,1,1,-2.0
492,746,wb361f36,Red,1.0,888.0,0,2,2,choice,Before,Color,Color,1,-2,2.0,4,4,1,1,2.0
493,747,wb361f36,Yellow,0.0,770.0,1,3,2,choice,Before,Color,Color,3,-3,-2.0,4,4,2,2,0.0
494,748,wb361f36,Yellow,1.0,955.0,1,1,3,choice,After,Color,Color,3,2,2.0,4,4,3,3,2.0
495,750,wb361f36,Blue,1.0,730.0,1,3,3,choice,After,Color,Color,2,1,-2.0,4,4,1,1,-1.0
496,751,wb361f36,Red,0.0,858.0,1,1,4,choice,Before,Color,Color,3,-2,0.0,4,4,2,3,2.0
497,752,wb361f36,Blue,1.0,766.0,1,2,4,choice,Before,Color,Color,1,1,-1.0,4,4,1,2,-1.0
498,753,wb361f36,Green,0.0,661.0,0,3,4,choice,Before,Color,Color,2,1,1.0,4,4,1,1,-1.0
499,754,wb361f36,Animal,1.0,755.0,1,1,5,choice,After,Category,Category,1,1,1.0,4,4,1,1,1.0
500,755,wb361f36,Scene,0.0,1270.0,1,2,5,choice,After,Category,Category,2,-1,-4.0,4,4,2,3,-4.0
501,756,wb361f36,Object,0.0,1367.0,1,3,5,choice,After,Category,Category,3,-1,0.0,4,4,1,2,-1.0
502,757,wb361f36,Animal,0.0,1726.0,1,1,6,choice,Before,Category,Category,2,-2,-2.0,3,3,1,2,-1.0
503,758,wb361f36,Scene,1.0,788.0,1,2,6,choice,Before,Category,Category,1,1,1.0,3,3,1,2,1.0
504,759,wb361f36,Food,1.0,1122.0,1,3,6,choice,Before,Category,Category,3,2,6.0,3,3,1,1,2.0
505,760,wb361f36,Object,0.0,2069.0,1,1,7,choice,After,Category,Category,2,-1,-3.0,4,4,1,2,-1.0
506,761,wb361f36,Food,0.0,1132.0,1,2,7,choice,After,Category,Category,1,-1,1.0,4,4,1,2,1.0
507,762,wb361f36,Scene,1.0,684.0,1,3,7,choice,After,Category,Category,3,2,5.0,4,4,2,2,3.0
508,784,w9b9abef,Food,,,0,1,1,choice,Before,Category,Category,1,2,2.0,6,6,1,1,2.0
509,785,w9b9abef,Scene,1.0,5426.0,0,2,1,choice,Before,Category,Category,3,-2,-2.0,6,6,3,3,-2.0
510,786,w9b9abef,Animal,1.0,4487.0,1,3,1,choice,Before,Category,Category,2,1,1.0,6,6,2,2,1.0
511,787,w9b9abef,Object,1.0,5272.0,1,1,2,choice,After,Category,Category,1,1,1.0,5,5,1,1,1.0
512,788,w9b9abef,Food,1.0,4799.0,1,2,2,choice,After,Category,Category,3,1,1.0,5,5,2,2,0.0
513,789,w9b9abef,Scene,0.0,2520.0,1,3,2,choice,After,Category,Category,2,-3,-3.0,5,5,2,3,-3.0
514,790,w9b9abef,Green,1.0,5147.0,1,1,3,choice,Before,Color,Color,1,1,1.0,4,4,1,1,1.0
515,791,w9b9abef,Yellow,0.0,915.0,1,2,3,choice,Before,Color,Color,3,-5,-1.0,4,4,2,3,0.0
516,792,w9b9abef,Blue,1.0,2237.0,1,3,3,choice,Before,Color,Color,2,3,-1.0,4,4,1,2,1.0
517,793,w9b9abef,Scene,1.0,2936.0,1,1,4,choice,After,Category,Category,1,2,2.0,5,5,1,1,2.0
518,794,w9b9abef,Animal,0.0,4197.0,1,2,4,choice,After,Category,Category,2,-4,-1.0,5,5,2,2,-1.0
519,795,w9b9abef,Object,1.0,3223.0,1,3,4,choice,After,Category,Category,3,1,0.0,5,5,2,2,2.0
520,796,w9b9abef,Red,1.0,3124.0,0,1,5,choice,Before,Color,Color,2,-2,-3.0,5,5,1,1,-1.0
521,797,w9b9abef,Green,0.0,2046.0,0,2,5,choice,Before,Color,Color,3,2,-1.0,5,5,3,3,-1.0
522,798,w9b9abef,Yellow,1.0,881.0,1,3,5,choice,Before,Color,Color,1,1,1.0,5,5,1,1,1.0
523,799,w9b9abef,Red,1.0,4077.0,1,1,6,choice,After,Color,Color,2,1,3.0,6,6,2,2,3.0
524,800,w9b9abef,Green,1.0,5339.0,1,2,6,choice,After,Color,Color,1,1,1.0,6,6,1,1,1.0
525,801,w9b9abef,Blue,0.0,3634.0,1,3,6,choice,After,Color,Color,3,-2,4.0,6,6,3,3,4.0
526,802,w9b9abef,Blue,0.0,3406.0,1,1,7,choice,Before,Color,Color,2,-1,-4.0,3,3,1,2,-2.0
527,803,w9b9abef,Green,1.0,4742.0,1,2,7,choice,Before,Color,Color,3,1,0.0,3,3,1,1,-2.0
528,804,w9b9abef,Yellow,0.0,4380.0,1,3,7,choice,Before,Color,Color,1,-2,-1.0,3,3,1,2,-1.0
529,811,w3c1c747,Scene,1.0,2790.0,1,1,1,choice,Before,Category,Category,2,3,2.0,4,4,1,2,1.0
530,812,w3c1c747,Food,1.0,1642.0,0,2,1,choice,Before,Category,Category,1,-2,-1.0,4,4,1,1,-1.0
531,813,w3c1c747,Animal,1.0,3238.0,0,3,1,choice,Before,Category,Category,3,-1,3.0,4,4,2,2,4.0
532,814,w3c1c747,Scene,0.0,1966.0,1,1,3,choice,Before,Category,Category,3,-3,-1.0,3,3,2,2,0.0
533,815,w3c1c747,Animal,0.0,2768.0,1,2,3,choice,Before,Category,Category,2,-1,2.0,3,3,1,2,1.0
534,818,w3c1c747,Object,0.0,3490.0,0,2,4,choice,After,Category,Category,2,1,-1.0,1,1,1,2,-2.0
535,820,w3c1c747,Green,1.0,1436.0,0,1,5,choice,Before,Color,Color,3,-1,-4.0,4,4,1,1,-1.0
536,821,w3c1c747,Red,0.0,1654.0,0,2,5,choice,Before,Color,Color,2,3,2.0,4,4,2,2,2.0
537,822,w3c1c747,Blue,0.0,1146.0,1,3,5,choice,Before,Color,Color,1,-2,1.0,4,4,1,2,1.0
538,823,w3c1c747,Animal,0.0,3015.0,0,1,6,choice,After,Category,Category,1,2,-2.0,4,4,1,2,-2.0
539,824,w3c1c747,Food,0.0,2857.0,0,2,6,choice,After,Category,Category,3,3,0.0,4,4,1,1,-1.0
540,825,w3c1c747,Scene,1.0,1132.0,0,3,6,choice,After,Category,Category,2,-3,2.0,4,4,2,2,2.0
541,826,w3c1c747,Yellow,0.0,1257.0,1,1,7,choice,Before,Color,Color,2,-2,-3.0,3,3,1,1,-1.0
542,827,w3c1c747,Blue,0.0,2849.0,0,2,7,choice,Before,Color,Color,3,4,-2.0,3,3,2,2,-3.0
543,836,w06d51ce,Object,1.0,2763.0,0,2,1,choice,Before,Category,Category,3,-2,-2.0,1,1,1,1,-2.0
544,838,w06d51ce,Object,1.0,6534.0,1,1,2,choice,After,Category,Category,1,2,2.0,4,4,1,1,2.0
545,839,w06d51ce,Scene,,,0,2,2,choice,After,Category,Category,3,-1,-5.0,4,4,2,2,-4.0
546,840,w06d51ce,Food,1.0,2216.0,0,3,2,choice,After,Category,Category,2,-1,2.0,4,4,1,1,1.0
547,841,w06d51ce,Green,1.0,1777.0,0,1,3,choice,Before,Color,Color,3,-2,2.0,3,3,2,2,0.0
548,843,w06d51ce,Red,1.0,4242.0,1,3,3,choice,Before,Color,Color,2,3,1.0,3,3,1,1,2.0
549,844,w06d51ce,Animal,,,0,1,4,choice,After,Category,Category,3,2,5.0,5,5,2,2,4.0
550,845,w06d51ce,Object,1.0,1751.0,1,2,4,choice,After,Category,Category,1,2,2.0,5,5,1,1,2.0
551,846,w06d51ce,Scene,0.0,1606.0,1,3,4,choice,After,Category,Category,2,-2,-3.0,5,5,2,2,-3.0
552,847,w06d51ce,Green,0.0,2955.0,1,1,5,choice,Before,Color,Color,3,-2,-2.0,4,4,1,1,-2.0
553,848,w06d51ce,Blue,0.0,2567.0,1,2,5,choice,Before,Color,Color,2,-1,-4.0,4,4,2,2,-4.0
554,849,w06d51ce,Yellow,1.0,936.0,1,3,5,choice,Before,Color,Color,1,2,1.0,4,4,1,2,1.0
555,852,w06d51ce,Blue,1.0,759.0,0,3,6,choice,After,Color,Color,2,-1,-1.0,1,1,1,1,-2.0
556,853,w06d51ce,Green,1.0,3104.0,1,1,7,choice,Before,Color,Color,3,2,3.0,4,4,2,2,4.0
557,854,w06d51ce,Blue,1.0,1036.0,0,2,7,choice,Before,Color,Color,2,-2,0.0,4,4,2,2,0.0
558,862,w83687da,Yellow,1.0,2160.0,1,1,1,choice,Before,Color,Color,1,2,0.0,4,4,1,2,0.0
559,863,w83687da,Blue,0.0,847.0,1,2,1,choice,Before,Color,Color,3,-1,-3.0,4,4,1,1,-2.0
560,864,w83687da,Green,1.0,573.0,0,3,1,choice,Before,Color,Color,2,-1,-2.0,4,4,2,2,-2.0
561,865,w83687da,Green,0.0,2087.0,1,1,2,choice,After,Color,Color,1,-2,-2.0,5,5,1,1,-2.0
562,866,w83687da,Blue,0.0,603.0,0,2,2,choice,After,Color,Color,2,1,-3.0,5,5,2,2,-3.0
563,867,w83687da,Red,1.0,542.0,1,3,2,choice,After,Color,Color,3,1,-1.0,5,5,2,2,-1.0
564,868,w83687da,Animal,1.0,994.0,0,1,3,choice,Before,Category,Category,2,-1,3.0,6,6,2,2,3.0
565,869,w83687da,Scene,0.0,2535.0,1,2,3,choice,Before,Category,Category,1,-1,-1.0,6,6,1,1,-1.0
566,870,w83687da,Food,1.0,2760.0,1,3,3,choice,Before,Category,Category,3,2,2.0,6,6,3,3,2.0
567,871,w83687da,Scene,1.0,3703.0,1,1,4,choice,After,Category,Category,2,1,1.0,6,6,2,2,1.0
568,872,w83687da,Animal,0.0,6742.0,1,2,4,choice,After,Category,Category,3,-1,-2.0,6,6,3,3,-2.0
569,873,w83687da,Object,1.0,5532.0,1,3,4,choice,After,Category,Category,1,2,2.0,6,6,1,1,2.0
570,874,w83687da,Yellow,1.0,5489.0,1,1,5,choice,Before,Color,Color,2,1,3.0,5,5,2,2,3.0
571,875,w83687da,Blue,1.0,1509.0,1,2,5,choice,Before,Color,Color,1,1,1.0,5,5,1,2,1.0
572,876,w83687da,Green,0.0,368.0,1,3,5,choice,Before,Color,Color,3,-1,-3.0,5,5,2,2,-2.0
573,877,w83687da,Scene,,,0,1,6,choice,After,Category,Category,2,-1,-1.0,6,6,2,2,-1.0
574,878,w83687da,Object,1.0,4645.0,0,2,6,choice,After,Category,Category,1,-2,-2.0,6,6,1,1,-2.0
575,879,w83687da,Food,1.0,3366.0,1,3,6,choice,After,Category,Category,3,1,1.0,6,6,3,3,1.0
576,880,w83687da,Object,0.0,3025.0,1,1,7,choice,Before,Category,Category,2,-2,-2.0,6,6,2,2,-2.0
577,881,w83687da,Scene,1.0,763.0,1,2,7,choice,Before,Category,Category,3,2,2.0,6,6,3,3,2.0
578,882,w83687da,Animal,1.0,2260.0,1,3,7,choice,Before,Category,Category,1,1,1.0,6,6,1,1,1.0
579,889,w07271cc,Green,1.0,6553.0,1,1,1,choice,Before,Color,Color,2,1,-2.0,4,4,1,1,-1.0
580,891,w07271cc,Blue,1.0,2056.0,1,3,1,choice,Before,Color,Color,3,1,1.0,4,4,3,3,1.0
581,892,w07271cc,Blue,0.0,3364.0,1,1,2,choice,After,Color,Color,1,-1,-1.0,5,5,1,2,-1.0
582,893,w07271cc,Yellow,0.0,2583.0,1,2,2,choice,After,Color,Color,3,-2,-1.0,5,5,2,2,0.0
583,894,w07271cc,Green,1.0,1998.0,1,3,2,choice,After,Color,Color,2,4,4.0,5,5,2,2,4.0
584,895,w07271cc,Animal,1.0,3216.0,1,1,3,choice,Before,Category,Category,2,1,-2.0,2,2,1,2,-1.0
585,897,w07271cc,Object,0.0,2789.0,1,3,3,choice,Before,Category,Category,3,-1,-1.0,2,2,1,2,2.0
586,898,w07271cc,Yellow,1.0,4361.0,1,1,4,choice,After,Color,Color,2,2,2.0,5,5,2,2,2.0
587,899,w07271cc,Red,0.0,3392.0,1,2,4,choice,After,Color,Color,1,-1,-1.0,5,5,1,1,-1.0
588,900,w07271cc,Blue,0.0,5458.0,1,3,4,choice,After,Color,Color,3,-2,-1.0,5,5,2,2,-2.0
589,901,w07271cc,Object,1.0,5789.0,1,1,5,choice,Before,Category,Category,1,1,1.0,5,5,1,1,1.0
590,902,w07271cc,Scene,0.0,2912.0,1,2,5,choice,Before,Category,Category,3,-1,-2.0,5,5,2,2,0.0
591,903,w07271cc,Animal,0.0,2000.0,1,3,5,choice,Before,Category,Category,2,-1,2.0,5,5,2,3,2.0
592,904,w07271cc,Food,0.0,3297.0,1,1,6,choice,After,Category,Category,3,-1,1.0,5,5,2,2,0.0
593,905,w07271cc,Animal,1.0,2547.0,1,2,6,choice,After,Category,Category,2,2,2.0,5,5,2,2,2.0
594,906,w07271cc,Scene,0.0,1980.0,1,3,6,choice,After,Category,Category,1,-1,-1.0,5,5,1,1,-1.0
595,907,w07271cc,Food,0.0,3234.0,1,1,7,choice,Before,Category,Category,2,-3,-2.0,4,4,1,2,-1.0
596,909,w07271cc,Scene,1.0,7402.0,1,3,7,choice,Before,Category,Category,3,3,3.0,4,4,3,3,3.0
597,916,w9b641f6,Food,,,0,1,1,choice,After,Category,Category,1,-2,-1.0,4,4,1,1,-1.0
598,917,w9b641f6,Animal,1.0,3683.0,1,2,1,choice,After,Category,Category,2,2,3.0,4,4,1,1,2.0
599,918,w9b641f6,Object,0.0,4763.0,1,3,1,choice,After,Category,Category,3,-2,-3.0,4,4,2,3,-4.0
600,919,w9b641f6,Green,0.0,3669.0,1,1,2,choice,Before,Color,Color,1,-2,-1.0,6,6,1,1,-1.0
601,920,w9b641f6,Yellow,1.0,2633.0,1,2,2,choice,Before,Color,Color,2,1,0.0,6,6,2,2,0.0
602,921,w9b641f6,Blue,1.0,2639.0,1,3,2,choice,Before,Color,Color,3,2,2.0,6,6,3,3,2.0
603,922,w9b641f6,Scene,0.0,5639.0,1,1,3,choice,After,Category,Category,2,-3,-3.0,5,5,2,2,-3.0
604,923,w9b641f6,Food,1.0,1653.0,1,2,3,choice,After,Category,Category,3,3,5.0,5,5,2,2,3.0
605,924,w9b641f6,Animal,1.0,2899.0,1,3,3,choice,After,Category,Category,1,2,2.0,5,5,1,1,2.0
606,925,w9b641f6,Yellow,0.0,4405.0,0,1,4,choice,Before,Color,Color,3,3,0.0,4,4,2,2,2.0
607,926,w9b641f6,Blue,1.0,2260.0,1,2,4,choice,Before,Color,Color,2,1,3.0,4,4,1,2,1.0
608,927,w9b641f6,Red,0.0,1631.0,1,3,4,choice,Before,Color,Color,1,-1,-2.0,4,4,1,1,-2.0
609,929,w9b641f6,Object,0.0,2075.0,0,2,5,choice,After,Category,Category,3,4,-2.0,3,3,2,2,-3.0
610,930,w9b641f6,Food,0.0,5672.0,1,3,5,choice,After,Category,Category,1,-2,-1.0,3,3,1,1,-1.0
611,931,w9b641f6,Scene,0.0,2178.0,1,1,6,choice,Before,Category,Category,3,-1,-1.0,3,3,2,2,1.0
612,933,w9b641f6,Food,1.0,2157.0,1,3,6,choice,Before,Category,Category,2,1,1.0,3,3,1,2,-1.0
613,934,w9b641f6,Green,0.0,4244.0,1,1,7,choice,After,Color,Color,3,-1,-2.0,4,4,2,2,0.0
614,936,w9b641f6,Blue,0.0,4429.0,0,3,7,choice,After,Color,Color,2,1,-3.0,4,4,2,4,-3.0
615,943,wb85c4ff,Animal,1.0,2854.0,0,1,1,choice,After,Category,Category,2,-3,-3.0,5,5,2,2,-3.0
616,944,wb85c4ff,Food,1.0,3807.0,0,2,1,choice,After,Category,Category,1,-1,2.0,5,5,1,1,2.0
617,945,wb85c4ff,Object,0.0,1201.0,0,3,1,choice,After,Category,Category,3,3,3.0,5,5,2,2,2.0
618,946,wb85c4ff,Green,1.0,1468.0,1,1,2,choice,Before,Color,Color,1,2,1.0,4,4,1,1,2.0
619,947,wb85c4ff,Yellow,0.0,2035.0,1,2,2,choice,Before,Color,Color,2,-3,-3.0,4,4,1,1,-2.0
620,948,wb85c4ff,Blue,1.0,2056.0,1,3,2,choice,Before,Color,Color,3,1,3.0,4,4,1,1,2.0
621,950,wb85c4ff,Food,0.0,1298.0,1,2,3,choice,After,Category,Category,3,-1,3.0,4,4,2,2,1.0
622,951,wb85c4ff,Animal,1.0,1061.0,0,3,3,choice,After,Category,Category,1,-2,2.0,4,4,1,1,4.0
623,952,wb85c4ff,Red,1.0,2542.0,0,1,4,choice,Before,Color,Color,1,-2,-2.0,2,2,1,1,-2.0
624,953,wb85c4ff,Yellow,1.0,1060.0,1,2,4,choice,Before,Color,Color,3,1,-1.0,2,2,1,1,-1.0
625,955,wb85c4ff,Animal,1.0,828.0,1,1,5,choice,After,Category,Category,2,3,0.0,3,3,1,2,1.0
626,957,wb85c4ff,Object,0.0,2201.0,1,3,5,choice,After,Category,Category,3,-2,-2.0,3,3,2,2,-1.0
627,958,wb85c4ff,Red,,,0,1,6,choice,Before,Color,Color,3,2,3.0,2,2,1,1,1.0
628,960,wb85c4ff,Blue,0.0,776.0,0,3,6,choice,Before,Color,Color,2,1,1.0,2,2,1,1,-1.0
629,961,wb85c4ff,Green,1.0,1102.0,1,1,7,choice,After,Color,Color,3,1,2.0,2,2,2,2,1.0
630,997,w9bde09f,Red,0.0,5411.0,1,1,1,choice,After,Color,Color,2,-1,-1.0,6,6,2,2,-1.0
631,998,w9bde09f,Yellow,1.0,6633.0,1,2,1,choice,After,Color,Color,3,1,1.0,6,6,3,3,1.0
632,999,w9bde09f,Green,1.0,4799.0,0,3,1,choice,After,Color,Color,1,-1,-1.0,6,6,1,1,-1.0
633,1000,w9bde09f,Blue,0.0,4663.0,1,1,2,choice,Before,Color,Color,3,-2,1.0,4,4,2,2,0.0
634,1001,w9bde09f,Yellow,1.0,4979.0,1,2,2,choice,Before,Color,Color,2,1,1.0,4,4,1,2,2.0
635,1002,w9bde09f,Green,1.0,2439.0,1,3,2,choice,Before,Color,Color,1,2,2.0,4,4,1,1,2.0
636,1003,w9bde09f,Scene,1.0,5142.0,1,1,3,choice,After,Category,Category,2,1,1.0,6,6,2,2,1.0
637,1004,w9bde09f,Animal,,,0,2,3,choice,After,Category,Category,1,1,-1.0,6,6,1,1,-1.0
638,1005,w9bde09f,Food,0.0,4983.0,1,3,3,choice,After,Category,Category,3,-1,3.0,6,6,3,3,3.0
639,1006,w9bde09f,Animal,1.0,3202.0,1,1,4,choice,Before,Category,Category,3,3,3.0,5,5,2,2,1.0
640,1007,w9bde09f,Object,0.0,3611.0,1,2,4,choice,Before,Category,Category,1,-2,-2.0,5,5,1,1,-2.0
641,1008,w9bde09f,Scene,0.0,5109.0,1,3,4,choice,Before,Category,Category,2,-1,-1.0,5,5,2,3,-1.0
642,1009,w9bde09f,Animal,0.0,4704.0,0,1,5,choice,After,Category,Category,2,3,1.0,1,1,1,2,-1.0
643,1012,w9bde09f,Blue,1.0,4472.0,1,1,6,choice,Before,Color,Color,2,1,-2.0,4,4,1,2,-1.0
644,1013,w9bde09f,Yellow,0.0,4737.0,1,2,6,choice,Before,Color,Color,1,-2,-1.0,4,4,1,2,-1.0
645,1014,w9bde09f,Red,1.0,1904.0,1,3,6,choice,Before,Color,Color,3,2,-1.0,4,4,2,2,1.0
646,1015,w9bde09f,Scene,1.0,4129.0,1,1,7,choice,After,Category,Category,1,2,2.0,4,4,1,1,2.0
647,1016,w9bde09f,Object,0.0,4371.0,0,2,7,choice,After,Category,Category,3,2,2.0,4,4,1,1,2.0
648,1017,w9bde09f,Animal,0.0,5558.0,1,3,7,choice,After,Category,Category,2,-4,-3.0,4,4,2,2,-3.0
649,1024,w249e8ce,Food,1.0,3893.0,0,1,1,choice,After,Category,Category,1,-2,1.0,5,5,1,1,3.0
650,1026,w249e8ce,Scene,1.0,659.0,0,3,1,choice,After,Category,Category,3,-1,3.0,5,5,1,1,2.0
651,1027,w249e8ce,Scene,,,0,1,2,choice,Before,Category,Category,2,-1,1.0,3,3,1,2,1.0
652,1029,w249e8ce,Food,1.0,1673.0,1,3,2,choice,Before,Category,Category,3,1,2.0,3,3,2,3,3.0
653,1030,w249e8ce,Yellow,0.0,3951.0,0,1,3,choice,After,Color,Color,3,2,2.0,4,4,3,4,2.0
654,1031,w249e8ce,Green,0.0,1738.0,1,2,3,choice,After,Color,Color,1,-1,-1.0,4,4,1,2,-1.0
655,1033,w249e8ce,Object,1.0,5487.0,1,1,4,choice,Before,Category,Category,3,1,4.0,6,6,3,3,4.0
656,1034,w249e8ce,Scene,1.0,4076.0,1,2,4,choice,Before,Category,Category,1,2,2.0,6,6,1,1,2.0
657,1035,w249e8ce,Animal,0.0,1764.0,1,3,4,choice,Before,Category,Category,2,-4,-2.0,6,6,2,2,-2.0
658,1036,w249e8ce,Yellow,0.0,1809.0,1,1,5,choice,After,Color,Color,1,-2,-2.0,5,5,1,2,-2.0
659,1037,w249e8ce,Green,1.0,1664.0,1,2,5,choice,After,Color,Color,3,5,4.0,5,5,3,3,4.0
660,1038,w249e8ce,Red,0.0,991.0,1,3,5,choice,After,Color,Color,2,-3,-3.0,5,5,1,1,-1.0
661,1039,w249e8ce,Green,1.0,1987.0,1,1,6,choice,Before,Color,Color,1,1,1.0,4,4,1,1,1.0
662,1040,w249e8ce,Red,0.0,1131.0,0,2,6,choice,Before,Color,Color,2,3,3.0,4,4,1,3,1.0
663,1041,w249e8ce,Blue,0.0,800.0,1,3,6,choice,Before,Color,Color,3,-5,-3.0,4,4,2,2,-1.0
664,1042,w249e8ce,Blue,0.0,2923.0,0,1,7,choice,After,Color,Color,2,2,2.0,3,3,1,1,1.0
665,1044,w249e8ce,Green,1.0,1490.0,0,3,7,choice,After,Color,Color,3,-1,3.0,3,3,2,2,2.0
666,1051,wa1909e0,Blue,0.0,1873.0,0,1,1,choice,After,Color,Color,3,2,-2.0,5,5,2,2,-3.0
667,1052,wa1909e0,Red,1.0,935.0,1,2,1,choice,After,Color,Color,1,2,2.0,5,5,1,1,2.0
668,1053,wa1909e0,Yellow,0.0,497.0,1,3,1,choice,After,Color,Color,2,-3,-3.0,5,5,2,3,-3.0
669,1054,wa1909e0,Scene,0.0,1712.0,1,1,2,choice,Before,Category,Category,2,-1,-1.0,3,3,2,2,-1.0
670,1055,wa1909e0,Object,0.0,959.0,1,2,2,choice,Before,Category,Category,1,-2,-2.0,3,3,1,1,-2.0
671,1057,wa1909e0,Food,1.0,5287.0,1,1,3,choice,After,Category,Category,1,1,1.0,5,5,1,1,1.0
672,1058,wa1909e0,Object,1.0,5222.0,1,2,3,choice,After,Category,Category,2,1,1.0,5,5,2,2,1.0
673,1059,wa1909e0,Animal,0.0,1311.0,1,3,3,choice,After,Category,Category,3,-1,-4.0,5,5,2,2,-3.0
674,1060,wa1909e0,Animal,0.0,2903.0,0,1,4,choice,Before,Category,Category,2,3,3.0,5,5,2,2,3.0
675,1061,wa1909e0,Scene,0.0,812.0,1,2,4,choice,Before,Category,Category,1,-2,-1.0,5,5,1,1,-1.0
676,1062,wa1909e0,Object,0.0,1009.0,1,3,4,choice,Before,Category,Category,3,-3,-2.0,5,5,2,2,0.0
677,1063,wa1909e0,Animal,1.0,3090.0,1,1,5,choice,After,Category,Category,1,2,2.0,6,6,1,1,2.0
678,1064,wa1909e0,Scene,0.0,3873.0,1,2,5,choice,After,Category,Category,2,-1,-1.0,6,6,2,2,-1.0
679,1065,wa1909e0,Object,0.0,3278.0,1,3,5,choice,After,Category,Category,3,-1,-1.0,6,6,3,3,-1.0
680,1066,wa1909e0,Red,0.0,3402.0,1,1,6,choice,Before,Color,Color,2,-3,-3.0,5,5,1,1,-1.0
681,1067,wa1909e0,Blue,1.0,3506.0,1,2,6,choice,Before,Color,Color,3,2,2.0,5,5,3,3,2.0
682,1068,wa1909e0,Green,0.0,1756.0,0,3,6,choice,Before,Color,Color,1,2,2.0,5,5,1,1,2.0
683,1069,wa1909e0,Yellow,0.0,1799.0,1,1,7,choice,After,Color,Color,1,-2,-2.0,6,6,1,1,-2.0
684,1070,wa1909e0,Green,0.0,1133.0,1,2,7,choice,After,Color,Color,3,-2,-2.0,6,6,3,3,-2.0
685,1071,wa1909e0,Blue,1.0,1016.0,1,3,7,choice,After,Color,Color,2,3,3.0,6,6,2,2,3.0
686,1098,w7800d0f,Red,1.0,3821.0,0,3,1,choice,Before,Color,Color,2,-1,2.0,2,2,2,3,2.0
687,1100,w7800d0f,Food,1.0,2062.0,0,2,2,choice,After,Category,Category,2,-1,0.0,3,3,2,2,0.0
688,1101,w7800d0f,Scene,1.0,4463.0,1,3,2,choice,After,Category,Category,3,2,2.0,3,3,1,1,2.0
689,1102,w7800d0f,Blue,1.0,3681.0,0,1,3,choice,Before,Color,Color,1,-2,-1.0,2,2,1,2,-1.0
690,1103,w7800d0f,Red,1.0,763.0,0,2,3,choice,Before,Color,Color,2,-2,3.0,2,2,1,3,2.0
691,1106,w7800d0f,Scene,1.0,587.0,1,2,4,choice,After,Category,Category,2,3,0.0,1,1,1,2,1.0
692,1110,w7800d0f,Animal,1.0,850.0,1,3,5,choice,Before,Category,Category,2,3,1.0,1,1,1,2,2.0
693,1111,w7800d0f,Blue,1.0,1759.0,0,1,6,choice,After,Color,Color,2,-1,0.0,2,2,1,1,-1.0
694,1112,w7800d0f,Red,0.0,1619.0,1,2,6,choice,After,Color,Color,3,-2,3.0,2,2,1,2,2.0
695,1114,w7800d0f,Green,1.0,1171.0,1,1,7,choice,Before,Color,Color,3,1,2.0,2,2,1,1,1.0
696,1116,w7800d0f,Blue,0.0,722.0,1,3,7,choice,Before,Color,Color,2,-1,-2.0,2,2,1,2,-1.0
697,1123,wb966154,Blue,1.0,3538.0,0,1,1,choice,After,Color,Color,2,-1,0.0,5,5,2,2,0.0
698,1124,wb966154,Yellow,1.0,3219.0,1,2,1,choice,After,Color,Color,3,2,5.0,5,5,3,3,5.0
699,1126,wb966154,Blue,1.0,4552.0,0,1,2,choice,Before,Color,Color,2,-4,-1.0,3,3,1,2,-2.0
700,1127,wb966154,Green,1.0,2502.0,1,2,2,choice,Before,Color,Color,3,1,-1.0,3,3,1,1,-1.0
701,1128,wb966154,Red,0.0,2753.0,0,3,2,choice,Before,Color,Color,1,1,1.0,3,3,1,2,1.0
702,1129,wb966154,Animal,1.0,3020.0,0,1,3,choice,After,Category,Category,2,-3,0.0,6,6,2,2,0.0
703,1130,wb966154,Scene,1.0,1545.0,1,2,3,choice,After,Category,Category,3,2,3.0,6,6,3,3,3.0
704,1131,wb966154,Object,0.0,2707.0,0,3,3,choice,After,Category,Category,1,2,-1.0,6,6,1,1,-1.0
705,1132,wb966154,Yellow,0.0,1685.0,1,1,4,choice,Before,Color,Color,2,-3,-3.0,5,5,2,2,-3.0
706,1133,wb966154,Red,1.0,1299.0,1,2,4,choice,Before,Color,Color,3,2,5.0,5,5,2,2,4.0
707,1134,wb966154,Green,1.0,747.0,1,3,4,choice,Before,Color,Color,1,2,2.0,5,5,1,2,2.0
708,1135,wb966154,Animal,1.0,2706.0,1,1,5,choice,After,Category,Category,3,3,2.0,5,5,2,2,1.0
709,1136,wb966154,Scene,1.0,1195.0,1,2,5,choice,After,Category,Category,2,1,1.0,5,5,2,2,1.0
710,1137,wb966154,Object,0.0,691.0,1,3,5,choice,After,Category,Category,1,-2,-2.0,5,5,1,1,-2.0
711,1138,wb966154,Scene,0.0,2426.0,0,1,6,choice,Before,Category,Category,2,2,-3.0,4,4,1,1,-2.0
712,1139,wb966154,Food,1.0,971.0,0,2,6,choice,Before,Category,Category,3,-1,2.0,4,4,2,3,0.0
713,1140,wb966154,Animal,0.0,1816.0,1,3,6,choice,Before,Category,Category,1,-1,2.0,4,4,1,2,2.0
714,1141,wb966154,Green,0.0,1615.0,1,1,7,choice,After,Color,Color,1,-2,-2.0,5,5,1,1,-2.0
715,1142,wb966154,Blue,1.0,1508.0,1,2,7,choice,After,Color,Color,3,3,4.0,5,5,2,2,3.0
716,1143,wb966154,Yellow,1.0,734.0,1,3,7,choice,After,Color,Color,2,1,3.0,5,5,2,3,3.0
717,1150,w4a907eb,Red,1.0,4478.0,1,1,1,choice,After,Color,Color,1,2,2.0,3,3,1,3,2.0
718,1151,w4a907eb,Green,0.0,3065.0,1,2,1,choice,After,Color,Color,2,-2,-3.0,3,3,1,2,-1.0
719,1152,w4a907eb,Blue,1.0,831.0,1,3,1,choice,After,Color,Color,3,1,5.0,3,3,1,1,2.0
720,1153,w4a907eb,Scene,0.0,3793.0,1,1,2,choice,Before,Category,Category,3,-1,-5.0,2,2,2,2,-4.0
721,1156,w4a907eb,Red,1.0,3996.0,0,1,3,choice,After,Color,Color,3,-2,-2.0,2,2,1,1,1.0
722,1157,w4a907eb,Yellow,0.0,1101.0,1,2,3,choice,After,Color,Color,1,-2,-2.0,2,2,1,1,-2.0
723,1159,w4a907eb,Object,1.0,2667.0,1,1,4,choice,Before,Category,Category,3,1,1.0,2,2,1,1,-2.0
724,1161,w4a907eb,Animal,1.0,2904.0,0,3,4,choice,Before,Category,Category,2,-1,-3.0,2,2,1,2,-2.0
725,1163,w4a907eb,Green,0.0,1897.0,0,2,5,choice,After,Color,Color,3,1,1.0,1,1,1,1,-2.0
726,1165,w4a907eb,Animal,1.0,2344.0,1,1,6,choice,Before,Category,Category,2,2,-1.0,3,3,2,2,-1.0
727,1166,w4a907eb,Scene,0.0,987.0,1,2,6,choice,Before,Category,Category,1,-2,-2.0,3,3,1,1,-2.0
728,1168,w4a907eb,Object,1.0,4206.0,0,1,7,choice,After,Category,Category,1,-2,-2.0,1,1,1,3,-2.0
729,1177,we824ff2,Green,0.0,4488.0,1,1,1,choice,Before,Color,Color,1,-2,-2.0,3,3,1,1,-2.0
730,1178,we824ff2,Yellow,1.0,2971.0,0,2,1,choice,Before,Color,Color,3,-1,0.0,3,3,1,1,-1.0
731,1179,we824ff2,Blue,1.0,457.0,1,3,1,choice,Before,Color,Color,2,3,4.0,3,3,1,2,2.0
732,1180,we824ff2,Scene,1.0,5124.0,0,1,2,choice,After,Category,Category,1,-2,2.0,5,5,1,1,2.0
733,1181,we824ff2,Food,1.0,6441.0,1,2,2,choice,After,Category,Category,3,1,-1.0,5,5,2,2,0.0
734,1182,we824ff2,Object,1.0,2416.0,0,3,2,choice,After,Category,Category,2,-1,0.0,5,5,2,2,0.0
735,1183,we824ff2,Yellow,1.0,3442.0,1,1,3,choice,Before,Color,Color,2,3,3.0,5,5,2,2,3.0
736,1184,we824ff2,Red,0.0,2461.0,1,2,3,choice,Before,Color,Color,3,-3,-5.0,5,5,2,2,-4.0
737,1185,we824ff2,Blue,1.0,706.0,1,3,3,choice,Before,Color,Color,1,1,2.0,5,5,1,1,2.0
738,1186,we824ff2,Object,1.0,2834.0,0,1,4,choice,After,Category,Category,2,-2,-2.0,4,4,2,2,-2.0
739,1187,we824ff2,Food,0.0,4626.0,0,2,4,choice,After,Category,Category,3,2,2.0,4,4,2,2,0.0
740,1189,we824ff2,Blue,1.0,3833.0,1,1,5,choice,Before,Color,Color,1,1,1.0,4,4,1,1,1.0
741,1190,we824ff2,Green,0.0,3376.0,1,2,5,choice,Before,Color,Color,3,-2,-2.0,4,4,1,2,-1.0
742,1191,we824ff2,Red,1.0,362.0,1,3,5,choice,Before,Color,Color,2,1,0.0,4,4,2,2,0.0
743,1192,we824ff2,Red,1.0,4478.0,0,1,6,choice,After,Color,Color,2,-1,4.0,5,5,1,1,2.0
744,1193,we824ff2,Yellow,1.0,2084.0,1,2,6,choice,After,Color,Color,1,2,-1.0,5,5,1,1,-1.0
745,1194,we824ff2,Green,1.0,2627.0,0,3,6,choice,After,Color,Color,3,-1,0.0,5,5,3,3,0.0
746,1195,we824ff2,Scene,0.0,4933.0,1,1,7,choice,Before,Category,Category,2,-1,-1.0,3,3,1,1,1.0
747,1196,we824ff2,Object,1.0,1510.0,1,2,7,choice,Before,Category,Category,3,2,2.0,3,3,2,2,0.0
748,1204,we245fc8,Food,1.0,1266.0,1,1,1,choice,Before,Category,Category,3,1,2.0,6,6,3,3,2.0
749,1205,we245fc8,Scene,0.0,2274.0,1,2,1,choice,Before,Category,Category,1,-2,-2.0,6,6,1,1,-2.0
750,1206,we245fc8,Object,1.0,1468.0,1,3,1,choice,Before,Category,Category,2,1,-1.0,6,6,2,2,-1.0
751,1207,we245fc8,Yellow,1.0,1138.0,1,1,2,choice,After,Color,Color,3,4,5.0,5,5,3,3,5.0
752,1209,we245fc8,Green,0.0,1138.0,1,3,2,choice,After,Color,Color,2,-4,-4.0,5,5,2,3,-4.0
753,1210,we245fc8,Red,1.0,2273.0,1,1,3,choice,Before,Color,Color,3,1,3.0,5,5,2,2,4.0
754,1211,we245fc8,Yellow,1.0,1673.0,0,2,3,choice,Before,Color,Color,1,-2,-2.0,5,5,1,1,-2.0
755,1212,we245fc8,Green,1.0,642.0,1,3,3,choice,Before,Color,Color,2,1,1.0,5,5,2,3,1.0
756,1213,we245fc8,Blue,0.0,1641.0,0,1,4,choice,After,Color,Color,3,5,2.0,3,3,1,2,0.0
757,1214,we245fc8,Yellow,0.0,1431.0,1,2,4,choice,After,Color,Color,2,-2,-3.0,3,3,1,2,-1.0
758,1215,we245fc8,Red,1.0,779.0,0,3,4,choice,After,Color,Color,1,-1,1.0,3,3,1,1,1.0
759,1216,we245fc8,Blue,1.0,1050.0,1,1,5,choice,Before,Color,Color,2,3,3.0,6,6,2,2,3.0
760,1217,we245fc8,Yellow,0.0,1128.0,1,2,5,choice,Before,Color,Color,1,-2,-1.0,6,6,1,1,-1.0
761,1218,we245fc8,Green,0.0,998.0,1,3,5,choice,Before,Color,Color,3,-3,-3.0,6,6,3,3,-3.0
762,1219,we245fc8,Scene,0.0,2110.0,0,1,6,choice,After,Category,Category,1,2,2.0,5,5,1,1,2.0
763,1220,we245fc8,Animal,0.0,2104.0,1,2,6,choice,After,Category,Category,2,-1,0.0,5,5,1,1,-1.0
764,1221,we245fc8,Food,0.0,1185.0,1,3,6,choice,After,Category,Category,3,-3,-3.0,5,5,3,3,-3.0
765,1222,we245fc8,Food,0.0,2010.0,0,1,7,choice,Before,Category,Category,2,1,-3.0,4,4,1,1,-1.0
766,1223,we245fc8,Scene,1.0,976.0,1,2,7,choice,Before,Category,Category,3,1,4.0,4,4,2,3,3.0
767,1224,we245fc8,Object,0.0,1680.0,1,3,7,choice,Before,Category,Category,1,-1,-1.0,4,4,1,1,-1.0
768,1231,wc54132b,Yellow,0.0,5910.0,1,1,1,choice,After,Color,Color,3,-1,-2.0,2,2,1,1,1.0
769,1232,wc54132b,Blue,1.0,3978.0,0,2,1,choice,After,Color,Color,2,-1,3.0,2,2,1,1,1.0
770,1234,wc54132b,Food,0.0,3612.0,0,1,2,choice,Before,Category,Category,3,2,2.0,5,5,3,4,2.0
771,1235,wc54132b,Scene,1.0,1943.0,1,2,2,choice,Before,Category,Category,1,2,2.0,5,5,1,1,2.0
772,1236,wc54132b,Object,0.0,3332.0,1,3,2,choice,Before,Category,Category,2,-2,-2.0,5,5,1,1,-1.0
773,1237,wc54132b,Scene,0.0,1709.0,1,1,3,choice,After,Category,Category,3,-1,-1.0,3,3,2,2,0.0
774,1239,wc54132b,Animal,1.0,2181.0,1,3,3,choice,After,Category,Category,2,1,1.0,3,3,1,1,2.0
775,1240,wc54132b,Yellow,1.0,5781.0,1,1,4,choice,Before,Color,Color,2,1,1.0,4,4,2,2,1.0
776,1241,wc54132b,Green,0.0,5418.0,1,2,4,choice,Before,Color,Color,1,-2,-2.0,4,4,1,1,-2.0
777,1242,wc54132b,Red,1.0,2341.0,1,3,4,choice,Before,Color,Color,3,2,2.0,4,4,1,1,2.0
778,1243,wc54132b,Green,1.0,2772.0,1,1,5,choice,After,Color,Color,3,2,6.0,4,4,2,2,4.0
779,1245,wc54132b,Red,0.0,599.0,1,3,5,choice,After,Color,Color,2,-4,-2.0,4,4,2,2,-2.0
780,1246,wc54132b,Scene,0.0,3883.0,1,1,6,choice,Before,Category,Category,2,-3,-1.0,2,2,1,1,-2.0
781,1247,wc54132b,Food,1.0,5206.0,1,2,6,choice,Before,Category,Category,3,2,0.0,2,2,1,1,1.0
782,1249,wc54132b,Blue,0.0,2433.0,1,1,7,choice,After,Color,Color,3,-2,-4.0,5,5,3,3,-4.0
783,1250,wc54132b,Green,1.0,3369.0,0,2,7,choice,After,Color,Color,1,-2,2.0,5,5,1,1,2.0
784,1251,wc54132b,Yellow,1.0,641.0,1,3,7,choice,After,Color,Color,2,3,3.0,5,5,1,1,2.0
785,1258,wffba7a1,Food,,,0,1,1,choice,Before,Category,Category,1,2,2.0,6,6,1,1,2.0
786,1259,wffba7a1,Animal,0.0,2517.0,1,2,1,choice,Before,Category,Category,2,-4,-4.0,6,6,2,2,-4.0
787,1260,wffba7a1,Object,0.0,3438.0,0,3,1,choice,Before,Category,Category,3,1,1.0,6,6,3,3,1.0
788,1261,wffba7a1,Scene,0.0,4011.0,0,1,2,choice,After,Category,Category,3,1,0.0,6,6,3,3,0.0
789,1262,wffba7a1,Object,0.0,2115.0,0,2,2,choice,After,Category,Category,1,1,1.0,6,6,1,1,1.0
790,1263,wffba7a1,Food,0.0,2900.0,1,3,2,choice,After,Category,Category,2,-4,-4.0,6,6,2,2,-4.0
791,1264,wffba7a1,Food,1.0,2077.0,1,1,3,choice,Before,Category,Category,3,2,2.0,6,6,3,3,2.0
792,1265,wffba7a1,Scene,1.0,2443.0,1,2,3,choice,Before,Category,Category,2,1,1.0,6,6,2,2,1.0
793,1266,wffba7a1,Animal,0.0,2580.0,1,3,3,choice,Before,Category,Category,1,-2,-1.0,6,6,1,1,-1.0
794,1267,wffba7a1,Red,0.0,6767.0,0,1,4,choice,After,Color,Color,1,2,-1.0,4,4,1,2,-1.0
795,1268,wffba7a1,Blue,0.0,3012.0,1,2,4,choice,After,Color,Color,2,-3,-2.0,4,4,1,2,-1.0
796,1269,wffba7a1,Yellow,1.0,1871.0,1,3,4,choice,After,Color,Color,3,1,2.0,4,4,2,2,1.0
797,1270,wffba7a1,Food,1.0,6306.0,1,1,5,choice,Before,Category,Category,1,1,1.0,6,6,1,1,1.0
798,1271,wffba7a1,Object,0.0,2829.0,1,2,5,choice,Before,Category,Category,3,-3,1.0,6,6,3,3,1.0
799,1272,wffba7a1,Animal,0.0,2080.0,1,3,5,choice,Before,Category,Category,2,-1,-3.0,6,6,2,2,-3.0
800,1273,wffba7a1,Red,0.0,3471.0,1,1,6,choice,After,Color,Color,3,-1,-3.0,5,5,2,2,-2.0
801,1274,wffba7a1,Blue,1.0,2417.0,1,2,6,choice,After,Color,Color,2,1,3.0,5,5,2,2,3.0
802,1275,wffba7a1,Yellow,1.0,3301.0,1,3,6,choice,After,Color,Color,1,1,1.0,5,5,1,2,1.0
803,1276,wffba7a1,Green,0.0,1379.0,0,1,7,choice,Before,Color,Color,3,2,1.0,6,6,3,3,1.0
804,1277,wffba7a1,Red,0.0,1844.0,1,2,7,choice,Before,Color,Color,1,-1,1.0,6,6,1,1,1.0
805,1278,wffba7a1,Blue,0.0,1706.0,1,3,7,choice,Before,Color,Color,2,-1,-4.0,6,6,2,2,-4.0
806,1303,w38a9dbf,Animal,,,0,1,1,choice,Before,Category,Category,2,-4,-2.0,5,5,2,2,-2.0
807,1304,w38a9dbf,Food,0.0,3340.0,1,2,1,choice,Before,Category,Category,1,-2,-2.0,5,5,1,1,-2.0
808,1305,w38a9dbf,Scene,1.0,1495.0,1,3,1,choice,Before,Category,Category,3,4,2.0,5,5,2,3,3.0
809,1306,w38a9dbf,Green,1.0,1975.0,0,1,2,choice,After,Color,Color,2,-1,3.0,5,5,1,1,1.0
810,1307,w38a9dbf,Red,1.0,1590.0,1,2,2,choice,After,Color,Color,1,2,2.0,5,5,1,1,2.0
811,1308,w38a9dbf,Yellow,0.0,666.0,1,3,2,choice,After,Color,Color,3,-3,-4.0,5,5,3,4,-4.0
812,1309,w38a9dbf,Object,1.0,3648.0,0,1,3,choice,Before,Category,Category,2,-1,1.0,6,6,2,2,1.0
813,1310,w38a9dbf,Animal,0.0,958.0,1,2,3,choice,Before,Category,Category,3,-1,-2.0,6,6,3,3,-2.0
814,1311,w38a9dbf,Food,1.0,5451.0,1,3,3,choice,Before,Category,Category,1,2,1.0,6,6,1,1,1.0
815,1312,w38a9dbf,Blue,1.0,2364.0,1,1,4,choice,After,Color,Color,1,1,1.0,5,5,1,1,1.0
816,1313,w38a9dbf,Red,0.0,1142.0,1,2,4,choice,After,Color,Color,3,-5,-4.0,5,5,2,2,-2.0
817,1314,w38a9dbf,Green,1.0,1399.0,1,3,4,choice,After,Color,Color,2,3,2.0,5,5,2,2,2.0
818,1315,w38a9dbf,Green,0.0,2778.0,1,1,5,choice,Before,Color,Color,3,-2,1.0,6,6,3,3,1.0
819,1316,w38a9dbf,Yellow,0.0,3634.0,1,2,5,choice,Before,Color,Color,1,-2,-1.0,6,6,1,1,-1.0
820,1317,w38a9dbf,Red,1.0,546.0,1,3,5,choice,Before,Color,Color,2,2,2.0,6,6,2,2,2.0
821,1318,w38a9dbf,Animal,1.0,3237.0,0,1,6,choice,After,Category,Category,2,-4,0.0,3,3,1,2,1.0
822,1319,w38a9dbf,Food,1.0,1997.0,1,2,6,choice,After,Category,Category,3,4,3.0,3,3,1,1,2.0
823,1320,w38a9dbf,Scene,0.0,695.0,1,3,6,choice,After,Category,Category,1,-1,-1.0,3,3,1,2,-1.0
824,1321,w38a9dbf,Scene,0.0,2291.0,0,1,7,choice,Before,Category,Category,3,2,-1.0,4,4,2,3,-2.0
825,1322,w38a9dbf,Food,1.0,996.0,0,2,7,choice,Before,Category,Category,1,-1,2.0,4,4,1,2,2.0
826,1323,w38a9dbf,Object,0.0,866.0,0,3,7,choice,Before,Category,Category,2,1,0.0,4,4,1,1,1.0
827,1331,w8363ab3,Green,1.0,948.0,0,2,1,choice,Before,Color,Color,2,-3,3.0,4,4,2,2,3.0
828,1332,w8363ab3,Blue,0.0,516.0,0,3,1,choice,Before,Color,Color,3,1,-2.0,4,4,2,2,-3.0
829,1333,w8363ab3,Scene,1.0,2930.0,0,1,2,choice,After,Category,Category,3,-2,3.0,5,5,3,3,3.0
830,1334,w8363ab3,Food,0.0,3016.0,0,2,2,choice,After,Category,Category,1,2,1.0,5,5,1,1,1.0
831,1335,w8363ab3,Object,0.0,1857.0,1,3,2,choice,After,Category,Category,2,-1,0.0,5,5,1,1,-2.0
832,1336,w8363ab3,Yellow,0.0,6014.0,1,1,3,choice,Before,Color,Color,3,-1,-1.0,3,3,2,2,1.0
833,1337,w8363ab3,Red,0.0,1215.0,1,2,3,choice,Before,Color,Color,2,-1,0.0,3,3,1,1,2.0
834,1339,w8363ab3,Scene,1.0,1000.0,1,1,4,choice,After,Category,Category,2,1,1.0,4,4,1,2,2.0
835,1340,w8363ab3,Object,1.0,821.0,1,2,4,choice,After,Category,Category,1,2,2.0,4,4,1,1,2.0
836,1341,w8363ab3,Animal,0.0,1087.0,1,3,4,choice,After,Category,Category,3,-2,-1.0,4,4,2,2,-2.0
837,1342,w8363ab3,Green,1.0,1189.0,1,1,5,choice,Before,Color,Color,3,1,1.0,5,5,2,2,0.0
838,1343,w8363ab3,Yellow,0.0,1119.0,1,2,5,choice,Before,Color,Color,2,-3,-3.0,5,5,2,3,-3.0
839,1344,w8363ab3,Blue,1.0,489.0,1,3,5,choice,Before,Color,Color,1,1,2.0,5,5,1,1,2.0
840,1345,w8363ab3,Scene,1.0,1344.0,1,1,6,choice,After,Category,Category,2,2,2.0,5,5,1,2,1.0
841,1346,w8363ab3,Object,0.0,717.0,1,2,6,choice,After,Category,Category,1,-2,-2.0,5,5,1,1,-2.0
842,1347,w8363ab3,Food,0.0,661.0,1,3,6,choice,After,Category,Category,3,-3,5.0,5,5,3,3,5.0
843,1348,w8363ab3,Red,1.0,801.0,1,1,7,choice,Before,Color,Color,3,2,-1.0,3,3,2,2,0.0
844,1350,w8363ab3,Yellow,1.0,335.0,1,3,7,choice,Before,Color,Color,2,1,2.0,3,3,1,2,1.0
845,1357,wd20dd5c,Food,0.0,3418.0,1,1,1,choice,After,Category,Category,3,-2,-2.0,4,4,2,2,0.0
846,1358,wd20dd5c,Scene,1.0,1111.0,1,2,1,choice,After,Category,Category,1,1,2.0,4,4,1,1,2.0
847,1359,wd20dd5c,Object,1.0,928.0,1,3,1,choice,After,Category,Category,2,1,1.0,4,4,1,1,-1.0
848,1360,wd20dd5c,Blue,0.0,3093.0,1,1,2,choice,Before,Color,Color,1,-1,-1.0,4,4,1,1,-1.0
849,1361,wd20dd5c,Yellow,0.0,2886.0,0,2,2,choice,Before,Color,Color,3,2,2.0,4,4,1,1,-1.0
850,1362,wd20dd5c,Green,1.0,582.0,0,3,2,choice,Before,Color,Color,2,-1,4.0,4,4,2,2,4.0
851,1363,wd20dd5c,Scene,1.0,3366.0,1,1,3,choice,After,Category,Category,1,2,2.0,6,6,1,1,2.0
852,1364,wd20dd5c,Animal,1.0,3310.0,0,2,3,choice,After,Category,Category,2,-3,0.0,6,6,2,2,0.0
853,1365,wd20dd5c,Object,1.0,3372.0,1,3,3,choice,After,Category,Category,3,2,2.0,6,6,3,3,2.0
854,1366,wd20dd5c,Animal,0.0,1734.0,1,1,4,choice,Before,Category,Category,2,-3,-3.0,5,5,2,2,-3.0
855,1367,wd20dd5c,Object,1.0,845.0,1,2,4,choice,Before,Category,Category,3,3,5.0,5,5,2,3,3.0
856,1368,wd20dd5c,Food,0.0,1797.0,1,3,4,choice,Before,Category,Category,1,-2,-2.0,5,5,1,1,-2.0
857,1369,wd20dd5c,Blue,1.0,2116.0,1,1,5,choice,After,Color,Color,2,1,3.0,5,5,2,3,3.0
858,1370,wd20dd5c,Green,0.0,768.0,1,2,5,choice,After,Color,Color,3,-1,-1.0,5,5,2,2,0.0
859,1371,wd20dd5c,Yellow,1.0,917.0,1,3,5,choice,After,Color,Color,1,1,1.0,5,5,1,1,1.0
860,1372,wd20dd5c,Red,0.0,2723.0,1,1,6,choice,Before,Color,Color,3,-1,-1.0,5,5,3,3,-1.0
861,1373,wd20dd5c,Blue,1.0,5329.0,1,2,6,choice,Before,Color,Color,1,1,1.0,5,5,1,1,1.0
862,1374,wd20dd5c,Yellow,1.0,417.0,1,3,6,choice,Before,Color,Color,2,1,3.0,5,5,1,2,1.0
863,1375,wd20dd5c,Scene,0.0,1081.0,1,1,7,choice,After,Category,Category,3,-6,-6.0,6,6,3,3,-6.0
864,1376,wd20dd5c,Food,1.0,1491.0,1,2,7,choice,After,Category,Category,2,3,2.0,6,6,2,2,2.0
865,1377,wd20dd5c,Object,1.0,495.0,1,3,7,choice,After,Category,Category,1,1,1.0,6,6,1,1,1.0
866,1384,w3acba24,Yellow,1.0,3345.0,0,1,1,choice,Before,Color,Color,2,-1,3.0,2,2,1,1,2.0
867,1385,w3acba24,Red,0.0,5121.0,0,2,1,choice,Before,Color,Color,1,1,-1.0,2,2,1,3,-1.0
868,1387,w3acba24,Scene,1.0,1968.0,1,1,2,choice,After,Category,Category,2,3,3.0,4,4,1,1,1.0
869,1388,w3acba24,Food,0.0,5570.0,1,2,2,choice,After,Category,Category,3,-1,0.0,4,4,2,2,1.0
870,1389,w3acba24,Object,1.0,1377.0,0,3,2,choice,After,Category,Category,1,-1,1.0,4,4,1,1,1.0
871,1390,w3acba24,Object,0.0,4196.0,1,1,3,choice,Before,Category,Category,2,-1,-3.0,5,5,2,2,-3.0
872,1391,w3acba24,Food,0.0,4462.0,1,2,3,choice,Before,Category,Category,1,-1,-1.0,5,5,1,1,-1.0
873,1392,w3acba24,Animal,1.0,3452.0,1,3,3,choice,Before,Category,Category,3,2,2.0,5,5,2,2,3.0
874,1393,w3acba24,Object,0.0,3672.0,1,1,4,choice,After,Category,Category,3,-3,0.0,5,5,3,3,0.0
875,1394,w3acba24,Scene,1.0,3749.0,1,2,4,choice,After,Category,Category,1,1,1.0,5,5,1,1,1.0
876,1395,w3acba24,Animal,1.0,6809.0,0,3,4,choice,After,Category,Category,2,-1,3.0,5,5,1,1,2.0
877,1397,w3acba24,Green,0.0,1579.0,1,2,5,choice,Before,Color,Color,3,-2,-2.0,3,3,2,2,-3.0
878,1398,w3acba24,Red,,,0,3,5,choice,Before,Color,Color,2,4,1.0,3,3,1,2,-1.0
879,1399,w3acba24,Food,1.0,4057.0,1,1,6,choice,After,Category,Category,3,2,3.0,4,4,2,2,1.0
880,1400,w3acba24,Animal,1.0,3176.0,1,2,6,choice,After,Category,Category,2,1,0.0,4,4,1,2,-2.0
881,1401,w3acba24,Scene,1.0,1038.0,0,3,6,choice,After,Category,Category,1,-2,-2.0,4,4,1,1,-2.0
882,1402,w3acba24,Yellow,1.0,3249.0,1,1,7,choice,Before,Color,Color,1,1,1.0,3,3,1,1,1.0
883,1403,w3acba24,Green,1.0,4715.0,0,2,7,choice,Before,Color,Color,3,-2,1.0,3,3,2,2,0.0
884,1411,w8843fd3,Blue,0.0,4249.0,1,1,1,choice,After,Color,Color,3,-2,-6.0,5,5,2,2,-4.0
885,1412,w8843fd3,Green,1.0,1054.0,1,2,1,choice,After,Color,Color,2,3,3.0,5,5,2,2,3.0
886,1413,w8843fd3,Yellow,0.0,3612.0,1,3,1,choice,After,Color,Color,1,-2,-2.0,5,5,1,1,-2.0
887,1414,w8843fd3,Food,0.0,4915.0,1,1,2,choice,Before,Category,Category,1,-1,-2.0,6,6,1,1,-2.0
888,1415,w8843fd3,Scene,1.0,1496.0,1,2,2,choice,Before,Category,Category,3,3,3.0,6,6,3,3,3.0
889,1416,w8843fd3,Object,0.0,2947.0,1,3,2,choice,Before,Category,Category,2,-1,-1.0,6,6,2,2,-1.0
890,1418,w8843fd3,Animal,0.0,3519.0,1,2,3,choice,After,Category,Category,2,-3,-3.0,5,5,2,2,-3.0
891,1419,w8843fd3,Food,1.0,978.0,1,3,3,choice,After,Category,Category,3,1,1.0,5,5,3,3,1.0
892,1420,w8843fd3,Red,0.0,3836.0,1,1,4,choice,Before,Color,Color,1,-1,-1.0,5,5,1,2,-1.0
893,1421,w8843fd3,Blue,1.0,731.0,1,2,4,choice,Before,Color,Color,2,3,3.0,5,5,2,2,3.0
894,1422,w8843fd3,Yellow,0.0,400.0,1,3,4,choice,Before,Color,Color,3,-1,-1.0,5,5,2,2,-2.0
895,1423,w8843fd3,Yellow,1.0,2837.0,1,1,5,choice,After,Color,Color,2,4,3.0,5,5,1,2,2.0
896,1424,w8843fd3,Blue,0.0,4767.0,1,2,5,choice,After,Color,Color,1,-2,-2.0,5,5,1,1,-2.0
897,1425,w8843fd3,Green,0.0,2449.0,1,3,5,choice,After,Color,Color,3,-1,-1.0,5,5,3,3,-1.0
898,1426,w8843fd3,Food,0.0,3647.0,0,1,6,choice,Before,Category,Category,3,2,0.0,5,5,2,2,2.0
899,1427,w8843fd3,Scene,0.0,1420.0,1,2,6,choice,Before,Category,Category,2,-3,-3.0,5,5,2,2,-3.0
900,1428,w8843fd3,Object,1.0,1680.0,1,3,6,choice,Before,Category,Category,1,2,2.0,5,5,1,1,2.0
901,1429,w8843fd3,Red,0.0,3189.0,0,1,7,choice,After,Color,Color,3,1,-2.0,4,4,2,2,-4.0
902,1430,w8843fd3,Yellow,1.0,674.0,1,2,7,choice,After,Color,Color,2,1,1.0,4,4,1,1,-1.0
903,1431,w8843fd3,Blue,0.0,2484.0,1,3,7,choice,After,Color,Color,1,-2,-2.0,4,4,1,1,-2.0
904,1447,wa136b3d,Green,1.0,3351.0,1,1,1,choice,Before,Color,Color,1,1,2.0,4,4,1,1,2.0
905,1448,wa136b3d,Red,1.0,1418.0,0,2,1,choice,Before,Color,Color,2,-4,-3.0,4,4,1,2,-2.0
906,1449,wa136b3d,Yellow,1.0,2820.0,1,3,1,choice,Before,Color,Color,3,2,2.0,4,4,2,2,0.0
907,1450,wa136b3d,Object,1.0,4147.0,0,1,2,choice,After,Category,Category,1,-2,-2.0,5,5,1,1,-2.0
908,1451,wa136b3d,Scene,1.0,1421.0,0,2,2,choice,After,Category,Category,3,-1,-3.0,5,5,2,2,-4.0
909,1452,wa136b3d,Food,0.0,1255.0,0,3,2,choice,After,Category,Category,2,3,3.0,5,5,2,2,3.0
910,1453,wa136b3d,Green,0.0,3836.0,1,1,3,choice,Before,Color,Color,3,-1,2.0,3,3,1,1,1.0
911,1454,wa136b3d,Red,1.0,3038.0,1,2,3,choice,Before,Color,Color,2,1,4.0,3,3,2,2,4.0
912,1456,wa136b3d,Scene,0.0,3421.0,0,1,4,choice,After,Category,Category,2,1,-4.0,4,4,1,1,-2.0
913,1457,wa136b3d,Animal,1.0,5996.0,1,2,4,choice,After,Category,Category,3,1,0.0,4,4,2,2,-2.0
914,1458,wa136b3d,Object,1.0,4050.0,0,3,4,choice,After,Category,Category,1,-2,2.0,4,4,1,1,2.0
915,1459,wa136b3d,Green,1.0,5130.0,1,1,5,choice,Before,Color,Color,3,1,-1.0,1,1,1,1,-1.0
916,1462,wa136b3d,Blue,1.0,963.0,1,1,6,choice,After,Color,Color,2,1,1.0,3,3,1,1,2.0
917,1464,wa136b3d,Red,0.0,3687.0,1,3,6,choice,After,Color,Color,3,-1,-6.0,3,3,2,2,-4.0
918,1465,wa136b3d,Animal,0.0,3498.0,1,1,7,choice,Before,Category,Category,2,-3,2.0,4,4,2,2,2.0
919,1466,wa136b3d,Object,1.0,1725.0,1,2,7,choice,Before,Category,Category,3,2,-1.0,4,4,2,2,0.0
920,1474,w9cf2bd7,Red,1.0,3478.0,0,1,1,choice,After,Color,Color,2,-1,1.0,3,3,2,3,1.0
921,1476,w9cf2bd7,Green,0.0,3805.0,0,3,1,choice,After,Color,Color,1,2,-2.0,3,3,1,3,-2.0
922,1477,w9cf2bd7,Scene,1.0,3953.0,1,1,2,choice,Before,Category,Category,3,1,4.0,4,4,2,3,2.0
923,1478,w9cf2bd7,Food,1.0,4789.0,1,2,2,choice,Before,Category,Category,2,1,3.0,4,4,2,2,3.0
924,1481,w9cf2bd7,Scene,1.0,1270.0,1,2,3,choice,After,Category,Category,2,2,4.0,3,3,1,1,2.0
925,1482,w9cf2bd7,Food,0.0,2908.0,1,3,3,choice,After,Category,Category,3,-1,-1.0,3,3,2,2,0.0
926,1484,w9cf2bd7,Blue,0.0,1187.0,1,2,4,choice,Before,Color,Color,2,-1,0.0,2,2,2,2,0.0
927,1487,w9cf2bd7,Green,1.0,622.0,0,2,5,choice,After,Color,Color,3,-2,0.0,3,3,1,1,-1.0
928,1488,w9cf2bd7,Blue,0.0,535.0,0,3,5,choice,After,Color,Color,2,3,0.0,3,3,2,2,0.0
929,1489,w9cf2bd7,Blue,0.0,3654.0,1,1,6,choice,Before,Color,Color,2,-3,-4.0,6,6,2,2,-4.0
930,1490,w9cf2bd7,Red,1.0,1013.0,1,2,6,choice,Before,Color,Color,3,1,4.0,6,6,3,3,4.0
931,1491,w9cf2bd7,Yellow,1.0,1219.0,1,3,6,choice,Before,Color,Color,1,2,2.0,6,6,1,1,2.0
932,1492,w9cf2bd7,Object,0.0,1834.0,1,1,7,choice,After,Category,Category,3,-3,-5.0,5,5,2,3,-3.0
933,1493,w9cf2bd7,Scene,1.0,1416.0,0,2,7,choice,After,Category,Category,1,-1,1.0,5,5,1,1,1.0
934,1494,w9cf2bd7,Animal,1.0,929.0,1,3,7,choice,After,Category,Category,2,4,4.0,5,5,2,2,4.0
935,1501,wf537da7,Object,,,0,1,1,choice,After,Category,Category,3,2,0.0,5,5,2,2,1.0
936,1502,wf537da7,Animal,0.0,7155.0,1,2,1,choice,After,Category,Category,2,-3,-3.0,5,5,2,2,-3.0
937,1503,wf537da7,Food,1.0,2724.0,1,3,1,choice,After,Category,Category,1,1,1.0,5,5,1,1,1.0
938,1504,wf537da7,Object,1.0,1690.0,0,1,2,choice,Before,Category,Category,2,-3,-4.0,4,4,1,1,-2.0
939,1505,wf537da7,Scene,1.0,1841.0,1,2,2,choice,Before,Category,Category,3,2,4.0,4,4,2,2,3.0
940,1506,wf537da7,Food,0.0,2657.0,0,3,2,choice,Before,Category,Category,1,1,-1.0,4,4,1,2,-1.0
941,1507,wf537da7,Yellow,0.0,4037.0,0,1,3,choice,After,Color,Color,3,2,2.0,2,2,1,1,2.0
942,1508,wf537da7,Red,1.0,1024.0,0,2,3,choice,After,Color,Color,2,-2,0.0,2,2,1,1,1.0
943,1510,wf537da7,Animal,0.0,1840.0,1,1,4,choice,Before,Category,Category,3,-2,-5.0,5,5,2,2,-3.0
944,1511,wf537da7,Object,0.0,1655.0,1,2,4,choice,Before,Category,Category,1,-1,-1.0,5,5,1,1,-1.0
945,1512,wf537da7,Scene,1.0,1248.0,1,3,4,choice,Before,Category,Category,2,2,3.0,5,5,2,2,3.0
946,1513,wf537da7,Yellow,0.0,3627.0,0,1,5,choice,After,Color,Color,2,4,-3.0,2,2,1,2,-1.0
947,1514,wf537da7,Green,1.0,987.0,0,2,5,choice,After,Color,Color,3,-2,-1.0,2,2,1,1,-1.0
948,1517,wf537da7,Object,0.0,895.0,1,2,6,choice,Before,Category,Category,1,-2,-2.0,3,3,1,1,-2.0
949,1518,wf537da7,Food,0.0,1875.0,1,3,6,choice,Before,Category,Category,3,-1,-4.0,3,3,2,2,-3.0
950,1520,wf537da7,Yellow,0.0,1246.0,0,2,7,choice,After,Color,Color,2,3,-1.0,3,3,1,2,-2.0
951,1521,wf537da7,Red,1.0,508.0,0,3,7,choice,After,Color,Color,3,-3,2.0,3,3,2,2,3.0
952,1530,wa4fe3e4,Blue,0.0,522.0,0,3,1,choice,Before,Color,Color,3,1,-1.0,1,1,1,2,-2.0
953,1531,wa4fe3e4,Blue,1.0,1336.0,1,1,2,choice,After,Color,Color,2,1,2.0,3,3,1,2,1.0
954,1533,wa4fe3e4,Red,1.0,413.0,1,3,2,choice,After,Color,Color,3,2,2.0,3,3,1,1,4.0
955,1534,wa4fe3e4,Scene,1.0,5450.0,1,1,3,choice,Before,Category,Category,1,2,2.0,6,6,1,1,4.0
956,1535,wa4fe3e4,Animal,1.0,1975.0,0,2,3,choice,Before,Category,Category,2,-1,3.0,6,6,1,1,2.0
957,1536,wa4fe3e4,Food,0.0,2161.0,1,3,3,choice,Before,Category,Category,3,-1,-2.0,6,6,1,1,-2.0
958,1539,wa4fe3e4,Animal,0.0,292.0,1,3,4,choice,After,Category,Category,3,-1,1.0,3,3,1,1,3.0
959,1540,wa4fe3e4,Yellow,0.0,2753.0,1,1,5,choice,Before,Color,Color,2,-4,-2.0,2,2,1,1,-1.0
960,1541,wa4fe3e4,Green,1.0,1035.0,1,2,5,choice,Before,Color,Color,3,1,0.0,2,2,1,1,1.0
961,1543,wa4fe3e4,Food,1.0,2769.0,1,1,6,choice,After,Category,Category,3,1,-1.0,4,4,2,2,-4.0
962,1546,wa5817fc,Red,0.0,4509.0,1,1,1,choice,After,Color,Color,1,-2,-2.0,5,5,1,1,-2.0
963,1547,wa5817fc,Yellow,1.0,1747.0,1,2,1,choice,After,Color,Color,2,3,3.0,5,5,2,2,3.0
964,1548,wa5817fc,Blue,0.0,2495.0,1,3,1,choice,After,Color,Color,3,-1,2.0,5,5,2,2,3.0
965,1549,wa5817fc,Yellow,0.0,2159.0,0,1,2,choice,Before,Color,Color,3,1,0.0,5,5,2,2,2.0
966,1550,wa5817fc,Green,1.0,1351.0,0,2,2,choice,Before,Color,Color,2,-1,0.0,5,5,2,2,0.0
967,1551,wa5817fc,Red,0.0,4777.0,1,3,2,choice,Before,Color,Color,1,-2,-2.0,5,5,1,2,-2.0
968,1552,wa5817fc,Animal,0.0,2019.0,0,1,3,choice,After,Category,Category,3,1,-2.0,4,4,3,3,-2.0
969,1553,wa5817fc,Object,1.0,1019.0,0,2,3,choice,After,Category,Category,2,-1,1.0,4,4,1,1,2.0
970,1555,wa5817fc,Animal,1.0,891.0,1,1,4,choice,Before,Category,Category,2,2,0.0,6,6,2,2,0.0
971,1556,wa5817fc,Object,0.0,1377.0,1,2,4,choice,Before,Category,Category,3,-3,-2.0,6,6,3,3,-2.0
972,1557,wa5817fc,Scene,1.0,872.0,0,3,4,choice,Before,Category,Category,1,-1,-2.0,6,6,1,1,-2.0
973,1558,wa5817fc,Scene,0.0,2813.0,1,1,5,choice,After,Category,Category,2,-1,1.0,4,4,2,2,1.0
974,1559,wa5817fc,Object,1.0,2425.0,1,2,5,choice,After,Category,Category,3,1,-2.0,4,4,1,1,1.0
975,1560,wa5817fc,Animal,0.0,2667.0,1,3,5,choice,After,Category,Category,1,-1,-2.0,4,4,1,2,-2.0
976,1561,wa5817fc,Blue,0.0,1800.0,1,1,6,choice,Before,Color,Color,3,-1,-4.0,3,3,1,1,-1.0
977,1562,wa5817fc,Red,0.0,5151.0,1,2,6,choice,Before,Color,Color,2,-1,0.0,3,3,1,2,1.0
978,1563,wa5817fc,Green,1.0,876.0,1,3,6,choice,Before,Color,Color,1,2,2.0,3,3,1,2,2.0
979,1564,wa5817fc,Yellow,1.0,3674.0,1,1,7,choice,After,Color,Color,1,2,-1.0,5,5,1,1,-1.0
980,1565,wa5817fc,Green,0.0,920.0,0,2,7,choice,After,Color,Color,3,1,-1.0,5,5,2,2,1.0
981,1566,wa5817fc,Blue,0.0,428.0,1,3,7,choice,After,Color,Color,2,-3,-1.0,5,5,2,2,-1.0
982,1573,wd238f0c,Green,0.0,4588.0,1,1,1,choice,After,Color,Color,2,-1,-1.0,4,4,1,1,-2.0
983,1574,wd238f0c,Yellow,1.0,1950.0,0,2,1,choice,After,Color,Color,1,-1,-1.0,4,4,1,2,-1.0
984,1575,wd238f0c,Blue,0.0,3554.0,0,3,1,choice,After,Color,Color,3,1,5.0,4,4,2,2,3.0
985,1576,wd238f0c,Scene,1.0,1318.0,1,1,2,choice,Before,Category,Category,3,2,6.0,1,1,1,1,2.0
986,1579,wd238f0c,Red,1.0,4092.0,1,1,3,choice,After,Color,Color,2,1,3.0,3,3,1,1,2.0
987,1580,wd238f0c,Green,0.0,4158.0,0,2,3,choice,After,Color,Color,1,2,2.0,3,3,1,1,2.0
988,1581,wd238f0c,Yellow,0.0,3124.0,1,3,3,choice,After,Color,Color,3,-2,-1.0,3,3,1,1,-2.0
989,1583,wd238f0c,Animal,0.0,1092.0,1,2,4,choice,Before,Category,Category,3,-2,-3.0,2,2,2,3,-4.0
990,1586,wd238f0c,Green,0.0,1002.0,1,2,5,choice,After,Color,Color,3,-3,-3.0,2,2,2,2,-4.0
991,1588,w16b46ff,Object,1.0,5501.0,1,1,1,choice,Before,Category,Category,3,1,1.0,3,3,1,1,2.0
992,1589,w16b46ff,Animal,0.0,4914.0,1,2,1,choice,Before,Category,Category,2,-1,-1.0,3,3,2,2,-1.0
993,1593,w16b46ff,Scene,1.0,1772.0,0,3,2,choice,After,Category,Category,3,-1,2.0,2,2,2,2,3.0
994,1595,w16b46ff,Food,1.0,1356.0,1,2,3,choice,Before,Category,Category,3,1,1.0,3,3,3,3,1.0
995,1597,w16b46ff,Red,1.0,2329.0,1,1,4,choice,After,Color,Color,1,2,1.0,4,4,1,1,1.0
996,1598,w16b46ff,Blue,0.0,2177.0,1,2,4,choice,After,Color,Color,2,-2,3.0,4,4,1,1,2.0
997,1599,w16b46ff,Yellow,0.0,1844.0,0,3,4,choice,After,Color,Color,3,1,5.0,4,4,2,2,3.0
998,1600,w16b46ff,Food,0.0,2226.0,1,1,5,choice,Before,Category,Category,3,-1,1.0,3,3,1,1,2.0
999,1601,w16b46ff,Animal,1.0,1680.0,1,2,5,choice,Before,Category,Category,2,1,-2.0,3,3,1,1,-1.0
1000,1602,w16b46ff,Scene,0.0,867.0,0,3,5,choice,Before,Category,Category,1,2,2.0,3,3,1,1,2.0
1001,1605,w16b46ff,Yellow,0.0,1001.0,0,3,6,choice,After,Color,Color,1,2,2.0,1,1,1,1,2.0
1002,1606,wb6ad69e,Animal,,,0,1,1,choice,After,Category,Category,2,1,-2.0,6,6,2,2,-2.0
1003,1607,wb6ad69e,Food,1.0,3049.0,0,2,1,choice,After,Category,Category,1,-1,2.0,6,6,1,1,2.0
1004,1608,wb6ad69e,Scene,1.0,1990.0,1,3,1,choice,After,Category,Category,3,3,3.0,6,6,3,3,3.0
1005,1609,wb6ad69e,Yellow,1.0,3462.0,0,1,2,choice,Before,Color,Color,3,-2,2.0,6,6,3,3,2.0
1006,1610,wb6ad69e,Red,0.0,2695.0,1,2,2,choice,Before,Color,Color,1,-2,-2.0,6,6,1,1,-2.0
1007,1611,wb6ad69e,Green,1.0,1143.0,1,3,2,choice,Before,Color,Color,2,3,4.0,6,6,2,2,4.0
1008,1612,wb6ad69e,Object,0.0,6370.0,1,1,3,choice,After,Category,Category,2,-4,-4.0,6,6,2,2,-4.0
1009,1613,wb6ad69e,Food,1.0,3544.0,1,2,3,choice,After,Category,Category,1,2,2.0,6,6,1,1,2.0
1010,1614,wb6ad69e,Animal,1.0,1712.0,1,3,3,choice,After,Category,Category,3,3,3.0,6,6,3,3,3.0
1011,1615,wb6ad69e,Object,1.0,6245.0,1,1,4,choice,Before,Category,Category,3,2,2.0,6,6,3,3,2.0
1012,1616,wb6ad69e,Scene,1.0,3555.0,1,2,4,choice,Before,Category,Category,1,2,2.0,6,6,1,1,2.0
1013,1617,wb6ad69e,Animal,0.0,3250.0,1,3,4,choice,Before,Category,Category,2,-3,-3.0,6,6,2,2,-3.0
1014,1618,wb6ad69e,Green,1.0,3701.0,0,1,5,choice,After,Color,Color,3,-1,2.0,6,6,3,3,2.0
1015,1619,wb6ad69e,Red,0.0,2231.0,0,2,5,choice,After,Color,Color,2,3,0.0,6,6,2,2,0.0
1016,1620,wb6ad69e,Yellow,0.0,4392.0,1,3,5,choice,After,Color,Color,1,-2,-2.0,6,6,1,1,-2.0
1017,1621,wb6ad69e,Green,0.0,5660.0,0,1,6,choice,Before,Color,Color,1,2,-1.0,6,6,1,1,-1.0
1018,1622,wb6ad69e,Blue,1.0,5698.0,0,2,6,choice,Before,Color,Color,3,-2,1.0,6,6,3,3,1.0
1019,1623,wb6ad69e,Red,0.0,3003.0,1,3,6,choice,Before,Color,Color,2,-1,-1.0,6,6,2,2,-1.0
1020,1624,wb6ad69e,Object,0.0,3564.0,1,1,7,choice,After,Category,Category,2,-3,-3.0,6,6,2,2,-3.0
1021,1625,wb6ad69e,Scene,1.0,3950.0,1,2,7,choice,After,Category,Category,3,1,1.0,6,6,3,3,1.0
1022,1626,wb6ad69e,Food,1.0,4154.0,1,3,7,choice,After,Category,Category,1,1,1.0,6,6,1,1,1.0
1023,1633,waf9be39,Blue,0.0,3753.0,1,1,2,choice,Before,Color,Color,2,-1,-1.0,6,6,2,2,-1.0
1024,1634,waf9be39,Green,1.0,3382.0,1,2,2,choice,Before,Color,Color,1,2,2.0,6,6,1,1,2.0
1025,1635,waf9be39,Red,0.0,2077.0,1,3,2,choice,Before,Color,Color,3,-2,-1.0,6,6,3,3,-1.0
1026,1637,waf9be39,Animal,0.0,2147.0,1,2,3,choice,After,Category,Category,2,-2,-2.0,4,4,1,1,-2.0
1027,1638,waf9be39,Food,0.0,707.0,0,3,3,choice,After,Category,Category,3,2,-3.0,4,4,2,2,-2.0
1028,1639,waf9be39,Blue,0.0,3225.0,0,1,4,choice,Before,Color,Color,2,1,0.0,4,4,1,1,-2.0
1029,1640,waf9be39,Red,1.0,2058.0,1,2,4,choice,Before,Color,Color,1,2,2.0,4,4,1,1,2.0
1030,1641,waf9be39,Yellow,1.0,1631.0,0,3,4,choice,Before,Color,Color,3,-1,-1.0,4,4,2,2,1.0
1031,1642,waf9be39,Food,1.0,2260.0,1,1,5,choice,After,Category,Category,3,2,2.0,1,1,1,1,1.0
1032,1645,waf9be39,Red,0.0,3481.0,1,1,6,choice,Before,Color,Color,2,-2,-2.0,6,6,2,2,-2.0
1033,1646,waf9be39,Yellow,1.0,3106.0,1,2,6,choice,Before,Color,Color,1,1,1.0,6,6,1,1,1.0
1034,1647,waf9be39,Green,1.0,879.0,1,3,6,choice,Before,Color,Color,3,1,1.0,6,6,3,3,1.0
1035,1648,waf9be39,Blue,0.0,3952.0,1,1,7,choice,After,Color,Color,1,-1,-2.0,6,6,1,1,-2.0
1036,1649,waf9be39,Red,0.0,1194.0,1,2,7,choice,After,Color,Color,3,-2,-2.0,6,6,3,3,-2.0
1037,1650,waf9be39,Yellow,1.0,1041.0,1,3,7,choice,After,Color,Color,2,2,2.0,6,6,2,2,2.0
1038,1657,w4a66ba2,Food,1.0,2105.0,1,1,1,choice,After,Category,Category,3,3,0.0,3,3,1,1,-1.0
1039,1658,w4a66ba2,Object,0.0,1524.0,1,2,1,choice,After,Category,Category,2,-2,0.0,3,3,1,1,-1.0
1040,1659,w4a66ba2,Scene,1.0,1170.0,1,3,1,choice,After,Category,Category,1,2,2.0,3,3,1,2,2.0
1041,1660,w4a66ba2,Scene,0.0,1530.0,1,1,2,choice,Before,Category,Category,3,-2,-2.0,4,4,3,3,-2.0
1042,1661,w4a66ba2,Food,1.0,1867.0,1,2,2,choice,Before,Category,Category,2,2,2.0,4,4,1,2,1.0
1043,1663,w4a66ba2,Yellow,1.0,1305.0,0,1,3,choice,After,Color,Color,1,-1,-1.0,3,3,1,2,-1.0
1044,1664,w4a66ba2,Green,1.0,1485.0,1,2,3,choice,After,Color,Color,2,3,1.0,3,3,1,2,-1.0
1045,1665,w4a66ba2,Red,1.0,1869.0,0,3,3,choice,After,Color,Color,3,-2,2.0,3,3,1,1,1.0
1046,1668,w4a66ba2,Blue,1.0,1354.0,0,3,4,choice,Before,Color,Color,3,-2,-1.0,2,2,2,2,0.0
1047,1669,w4a66ba2,Food,1.0,1923.0,0,1,6,choice,Before,Category,Category,3,-1,2.0,3,3,2,2,0.0
1048,1671,w4a66ba2,Animal,1.0,793.0,1,3,6,choice,Before,Category,Category,2,4,1.0,3,3,1,1,2.0
1049,1673,w4a66ba2,Yellow,1.0,932.0,0,2,7,choice,After,Color,Color,3,-1,2.0,1,1,1,1,2.0
1050,1676,wdea5d27,Blue,1.0,856.0,0,2,1,choice,After,Color,Color,3,-1,-2.0,1,1,1,2,2.0
1051,1678,wdea5d27,Food,1.0,2736.0,1,1,2,choice,Before,Category,Category,2,1,1.0,3,3,1,1,2.0
1052,1679,wdea5d27,Scene,1.0,1341.0,0,2,2,choice,Before,Category,Category,3,-2,2.0,3,3,2,2,3.0
1053,1681,wdea5d27,Green,0.0,3171.0,1,1,3,choice,After,Color,Color,2,-3,-3.0,3,3,1,2,-1.0
1054,1682,wdea5d27,Red,1.0,976.0,1,2,3,choice,After,Color,Color,3,2,1.0,3,3,2,2,2.0
1055,1684,wdea5d27,Object,0.0,3186.0,1,1,4,choice,Before,Category,Category,3,-2,-1.0,3,3,2,2,0.0
1056,1686,wdea5d27,Animal,1.0,3234.0,1,3,4,choice,Before,Category,Category,2,2,3.0,3,3,1,3,2.0
1057,1687,wdea5d27,Scene,0.0,2174.0,0,1,5,choice,After,Category,Category,3,3,2.0,3,3,1,1,1.0
1058,1688,wdea5d27,Animal,1.0,1313.0,0,2,5,choice,After,Category,Category,2,-2,-4.0,3,3,2,2,-4.0
1059,1692,wdea5d27,Red,1.0,1450.0,1,3,6,choice,Before,Color,Color,3,2,5.0,1,1,1,1,2.0
1060,1693,wdea5d27,Yellow,0.0,1366.0,0,1,7,choice,After,Color,Color,3,1,-1.0,2,2,2,2,-3.0
1061,1720,wbf1c81e,Object,,,0,1,1,choice,Before,Category,Category,3,-3,-2.0,5,5,3,3,-2.0
1062,1721,wbf1c81e,Food,0.0,2911.0,1,2,1,choice,Before,Category,Category,1,-1,-1.0,5,5,1,1,-1.0
1063,1722,wbf1c81e,Animal,1.0,1578.0,1,3,1,choice,Before,Category,Category,2,3,1.0,5,5,1,1,2.0
1064,1723,wbf1c81e,Scene,1.0,2388.0,1,1,2,choice,After,Category,Category,3,1,-1.0,6,6,3,3,-1.0
1065,1724,wbf1c81e,Food,1.0,1573.0,0,2,2,choice,After,Category,Category,2,-1,1.0,6,6,2,2,1.0
1066,1725,wbf1c81e,Object,0.0,1410.0,1,3,2,choice,After,Category,Category,1,-2,-2.0,6,6,1,1,-2.0
1067,1726,wbf1c81e,Green,0.0,2054.0,1,1,3,choice,Before,Color,Color,3,-2,-6.0,3,3,1,1,-2.0
1068,1727,wbf1c81e,Blue,1.0,871.0,1,2,3,choice,Before,Color,Color,1,1,1.0,3,3,1,2,1.0
1069,1728,wbf1c81e,Red,1.0,544.0,0,3,3,choice,Before,Color,Color,2,-1,3.0,3,3,1,1,2.0
1070,1729,wbf1c81e,Red,1.0,2368.0,1,1,4,choice,After,Color,Color,1,1,0.0,4,4,1,1,0.0
1071,1730,wbf1c81e,Blue,0.0,2849.0,1,2,4,choice,After,Color,Color,2,-1,-3.0,4,4,1,1,-1.0
1072,1731,wbf1c81e,Yellow,1.0,726.0,0,3,4,choice,After,Color,Color,3,-1,1.0,4,4,2,2,2.0
1073,1732,wbf1c81e,Object,0.0,3976.0,1,1,5,choice,Before,Category,Category,3,-2,-1.0,4,4,2,2,0.0
1074,1733,wbf1c81e,Animal,1.0,3668.0,1,2,5,choice,Before,Category,Category,2,4,4.0,4,4,1,1,2.0
1075,1734,wbf1c81e,Food,0.0,2500.0,1,3,5,choice,Before,Category,Category,1,-2,-2.0,4,4,1,1,-2.0
1076,1735,wbf1c81e,Blue,0.0,2560.0,1,1,6,choice,After,Color,Color,2,-3,-2.0,4,4,1,2,-1.0
1077,1736,wbf1c81e,Red,1.0,585.0,1,2,6,choice,After,Color,Color,3,1,5.0,4,4,2,2,3.0
1078,1737,wbf1c81e,Yellow,0.0,626.0,0,3,6,choice,After,Color,Color,1,2,-2.0,4,4,1,1,-2.0
1079,1740,wbf1c81e,Red,1.0,403.0,1,3,7,choice,Before,Color,Color,1,1,1.0,1,1,1,2,1.0
1080,1775,w61b360a,Food,1.0,2242.0,1,2,1,choice,Before,Category,Category,1,2,2.0,2,2,1,1,2.0
1081,1776,w61b360a,Object,0.0,3397.0,0,3,1,choice,Before,Category,Category,3,1,1.0,2,2,1,2,1.0
1082,1777,w61b360a,Red,1.0,3445.0,1,1,2,choice,After,Color,Color,3,1,-1.0,4,4,1,1,-1.0
1083,1778,w61b360a,Green,1.0,3879.0,1,2,2,choice,After,Color,Color,1,2,2.0,4,4,1,1,2.0
1084,1779,w61b360a,Blue,1.0,2246.0,0,3,2,choice,After,Color,Color,2,-3,-3.0,4,4,2,2,-3.0
1085,1780,w61b360a,Food,1.0,4822.0,0,1,3,choice,Before,Category,Category,3,-2,-2.0,5,5,3,3,-2.0
1086,1781,w61b360a,Scene,1.0,6120.0,1,2,3,choice,Before,Category,Category,1,2,2.0,5,5,1,1,2.0
1087,1782,w61b360a,Animal,0.0,2835.0,0,3,3,choice,Before,Category,Category,2,1,1.0,5,5,1,1,-1.0
1088,1784,w61b360a,Yellow,0.0,2630.0,1,2,4,choice,After,Color,Color,3,-1,-2.0,3,3,2,2,-1.0
1089,1785,w61b360a,Red,1.0,2532.0,1,3,4,choice,After,Color,Color,1,1,1.0,3,3,1,1,1.0
1090,1786,w61b360a,Blue,1.0,2477.0,1,1,5,choice,Before,Color,Color,1,1,2.0,5,5,1,1,2.0
1091,1787,w61b360a,Yellow,1.0,4171.0,1,2,5,choice,Before,Color,Color,2,1,0.0,5,5,1,2,1.0
1092,1788,w61b360a,Green,1.0,2012.0,0,3,5,choice,Before,Color,Color,3,-2,-2.0,5,5,3,3,-2.0
1093,1789,w61b360a,Red,0.0,2119.0,0,1,6,choice,After,Color,Color,2,3,2.0,4,4,1,1,1.0
1094,1790,w61b360a,Green,0.0,3015.0,1,2,6,choice,After,Color,Color,3,-2,-3.0,4,4,2,2,-2.0
1095,1791,w61b360a,Yellow,1.0,997.0,0,3,6,choice,After,Color,Color,1,-2,-1.0,4,4,1,1,-1.0
1096,1793,w61b360a,Object,0.0,2750.0,1,2,7,choice,Before,Category,Category,2,-3,-3.0,4,4,1,1,-1.0
1097,1794,w61b360a,Scene,1.0,2652.0,1,3,7,choice,Before,Category,Category,3,3,2.0,4,4,3,3,2.0
1098,1803,w8e07aa1,Scene,1.0,907.0,0,3,1,choice,Before,Category,Category,3,-1,3.0,1,1,1,1,-1.0
1099,1806,w8e07aa1,Yellow,1.0,1210.0,0,3,2,choice,After,Color,Color,3,-1,6.0,1,1,1,1,2.0
1100,1807,w8e07aa1,Animal,1.0,5765.0,0,1,3,choice,Before,Category,Category,3,-1,-2.0,5,5,2,2,0.0
1101,1808,w8e07aa1,Food,1.0,2055.0,1,2,3,choice,Before,Category,Category,1,1,2.0,5,5,1,1,2.0
1102,1809,w8e07aa1,Object,0.0,759.0,1,3,3,choice,Before,Category,Category,2,-1,-1.0,5,5,2,2,-1.0
1103,1810,w8e07aa1,Green,1.0,7150.0,0,1,5,choice,Before,Color,Color,3,-4,4.0,2,2,1,1,1.0
1104,1812,w8e07aa1,Red,1.0,2293.0,1,3,5,choice,Before,Color,Color,2,3,-3.0,2,2,1,1,-2.0
1105,1813,w8e07aa1,Green,1.0,3356.0,0,1,6,choice,After,Color,Color,1,-1,-1.0,3,3,1,2,-1.0
1106,1814,w8e07aa1,Red,1.0,1490.0,0,2,6,choice,After,Color,Color,2,-1,0.0,3,3,2,2,0.0
1107,1817,w8e07aa1,Scene,1.0,796.0,1,2,7,choice,Before,Category,Category,3,1,1.0,3,3,3,3,1.0
1108,1831,w060c642,Blue,,,0,1,1,choice,Before,Color,Color,3,2,2.0,6,6,3,3,2.0
1109,1832,w060c642,Yellow,0.0,3022.0,1,2,1,choice,Before,Color,Color,2,-4,-3.0,6,6,2,2,-3.0
1110,1833,w060c642,Red,1.0,2603.0,1,3,1,choice,Before,Color,Color,1,2,2.0,6,6,1,1,2.0
1111,1834,w060c642,Food,0.0,3130.0,1,1,2,choice,After,Category,Category,3,-1,-1.0,5,5,2,2,-3.0
