,index,wid,option,choice,rt,correct,trial_number,game,phase,multi_time,dim_shown,n_true_memories,value,remembered_value,n_total_memories_shown,n_total_memories,n_remembered_shown,n_remembered
0,0,wa022482,Animal,1.0,2516.0,0,1,1,choice,After,Category,2,-2,3.0,4,4,2,3
1,1,wa022482,Scene,0.0,1305.0,0,2,1,choice,After,Category,3,2,0.0,4,4,2,2
2,2,wa022482,Food,1.0,988.0,1,3,1,choice,After,Category,1,1,-1.0,4,4,0,0
3,3,wa022482,Food,0.0,3310.0,1,1,2,choice,Before,Category,3,-1,-2.0,5,5,3,3
4,4,wa022482,Scene,0.0,1852.0,1,2,2,choice,Before,Category,2,-1,0.0,5,5,2,2
5,5,wa022482,Object,,,0,3,2,choice,Before,Category,1,2,2.0,5,5,0,1
6,6,wa022482,Animal,1.0,2686.0,1,1,3,choice,After,Category,3,2,3.0,3,3,1,1
7,7,wa022482,Object,0.0,1840.0,1,2,3,choice,After,Category,2,-3,-2.0,3,3,1,1
8,8,wa022482,Food,1.0,1184.0,1,3,3,choice,After,Category,1,1,-2.0,3,3,0,0
9,9,wa022482,Green,0.0,4030.0,1,1,4,choice,Before,Color,2,-1,-1.0,2,2,1,1
10,10,wa022482,Blue,0.0,1278.0,1,2,4,choice,Before,Color,1,-1,-1.0,2,2,0,0
11,11,wa022482,Red,0.0,453.0,0,3,4,choice,Before,Color,3,1,-1.0,2,2,1,1
12,12,wa022482,Red,1.0,2528.0,0,1,5,choice,After,Color,2,-1,-4.0,3,3,1,2
13,13,wa022482,Yellow,1.0,1136.0,0,2,5,choice,After,Color,1,-1,1.0,3,3,1,1
14,14,wa022482,Green,0.0,373.0,0,3,5,choice,After,Color,3,2,1.0,3,3,1,1
15,15,wa022482,Blue,1.0,1029.0,1,1,6,choice,Before,Color,3,6,6.0,5,5,3,3
16,16,wa022482,Green,0.0,661.0,1,2,6,choice,Before,Color,1,-2,-1.0,5,5,0,1
17,17,wa022482,Red,0.0,289.0,1,3,6,choice,Before,Color,2,-2,-3.0,5,5,2,2
18,18,wa022482,Blue,1.0,1438.0,1,1,7,choice,After,Color,2,2,2.0,4,4,2,3
19,19,wa022482,Yellow,0.0,1236.0,1,2,7,choice,After,Color,1,-2,-2.0,4,4,0,0
20,20,wa022482,Green,0.0,424.0,1,3,7,choice,After,Color,3,-1,-1.0,4,4,2,2
21,21,wa022482,Food,1.0,2086.0,1,1,8,choice,Before,Category,3,3,3.0,1,1,1,2
22,22,wa022482,Object,0.0,1044.0,1,2,8,choice,Before,Category,1,-2,-2.0,1,1,0,1
23,23,wa022482,Animal,1.0,544.0,1,3,8,choice,Before,Category,2,1,3.0,1,1,0,0
24,24,wc263e54,Green,0.0,3119.0,0,1,1,choice,Before,Color,2,1,0.0,5,5,2,2
25,25,wc263e54,Blue,0.0,2277.0,0,2,1,choice,Before,Color,3,2,0.0,5,5,2,2
26,26,wc263e54,Yellow,0.0,3682.0,1,3,1,choice,Before,Color,1,-2,0.0,5,5,1,1
27,27,wc263e54,Scene,0.0,2867.0,0,1,2,choice,After,Category,3,1,0.0,5,5,2,2
28,28,wc263e54,Food,1.0,4955.0,0,2,2,choice,After,Category,1,-1,0.0,5,5,1,1
29,29,wc263e54,Object,0.0,4410.0,1,3,2,choice,After,Category,2,-1,0.0,5,5,2,2
30,30,wc263e54,Scene,1.0,2047.0,1,1,3,choice,Before,Category,1,2,0.0,4,4,1,1
31,31,wc263e54,Animal,0.0,2458.0,1,2,3,choice,Before,Category,2,-1,0.0,4,4,1,1
32,32,wc263e54,Food,0.0,1416.0,1,3,3,choice,Before,Category,3,-2,0.0,4,4,2,2
33,33,wc263e54,Red,0.0,4113.0,1,1,4,choice,After,Color,1,-1,0.0,1,1,0,0
34,34,wc263e54,Blue,0.0,2130.0,0,2,4,choice,After,Color,2,4,0.0,1,1,0,0
35,35,wc263e54,Yellow,0.0,5289.0,1,3,4,choice,After,Color,3,-1,0.0,1,1,1,1
36,36,wc263e54,Food,1.0,1417.0,1,1,5,choice,Before,Category,3,1,0.0,2,2,2,2
37,37,wc263e54,Scene,0.0,4754.0,0,2,5,choice,Before,Category,1,2,0.0,2,2,0,0
38,38,wc263e54,Animal,0.0,4098.0,1,3,5,choice,Before,Category,2,-3,0.0,2,2,0,0
39,39,wc263e54,Scene,1.0,2313.0,1,1,6,choice,After,Category,2,4,0.0,1,1,0,1
40,40,wc263e54,Food,,,0,2,6,choice,After,Category,3,-2,0.0,1,1,1,1
41,41,wc263e54,Object,,,0,3,6,choice,After,Category,1,-1,0.0,1,1,0,0
42,42,wc263e54,Yellow,0.0,3263.0,1,1,7,choice,Before,Color,2,-1,0.0,5,5,2,2
43,43,wc263e54,Blue,1.0,3163.0,1,2,7,choice,Before,Color,1,2,0.0,5,5,1,1
44,44,wc263e54,Red,0.0,2576.0,1,3,7,choice,Before,Color,3,-1,0.0,5,5,2,2
45,45,wc263e54,Green,1.0,1195.0,1,1,8,choice,After,Color,2,2,0.0,3,3,1,2
46,46,wc263e54,Red,0.0,1556.0,1,2,8,choice,After,Color,1,-2,0.0,3,3,1,2
47,47,wc263e54,Blue,0.0,2634.0,1,3,8,choice,After,Color,3,-2,0.0,3,3,1,1
48,48,w2457106,Green,0.0,2689.0,1,1,1,choice,Before,Color,1,-2,-2.0,5,5,1,1
49,49,w2457106,Yellow,0.0,1322.0,0,2,1,choice,Before,Color,3,2,0.0,5,5,2,2
50,50,w2457106,Red,1.0,1113.0,0,3,1,choice,Before,Color,2,-1,4.0,5,5,2,3
51,51,w2457106,Scene,0.0,2096.0,1,1,2,choice,After,Category,3,-2,-2.0,3,3,0,0
52,52,w2457106,Object,1.0,1817.0,1,2,2,choice,After,Category,1,2,2.0,3,3,1,1
53,53,w2457106,Food,1.0,1080.0,0,3,2,choice,After,Category,2,-1,3.0,3,3,2,2
54,54,w2457106,Scene,1.0,2120.0,1,1,3,choice,Before,Category,2,1,1.0,5,5,2,2
55,55,w2457106,Animal,0.0,1620.0,0,2,3,choice,Before,Category,1,2,-1.0,5,5,1,1
56,56,w2457106,Food,1.0,1398.0,0,3,3,choice,Before,Category,3,-1,-1.0,5,5,2,2
57,57,w2457106,Animal,1.0,2628.0,1,1,4,choice,After,Category,3,2,4.0,3,3,0,0
58,58,w2457106,Object,0.0,2654.0,0,2,4,choice,After,Category,1,2,1.0,3,3,1,1
59,59,w2457106,Scene,0.0,1853.0,1,3,4,choice,After,Category,2,-4,-2.0,3,3,2,2
60,60,w2457106,Yellow,1.0,2783.0,0,1,5,choice,Before,Color,1,-2,1.0,4,4,1,2
61,61,w2457106,Blue,0.0,3407.0,0,2,5,choice,Before,Color,2,3,0.0,4,4,0,0
62,62,w2457106,Green,1.0,2669.0,0,3,5,choice,Before,Color,3,-2,-2.0,4,4,3,3
63,63,w2457106,Blue,0.0,1934.0,1,1,6,choice,After,Color,2,-1,-3.0,4,4,2,3
64,64,w2457106,Yellow,1.0,2917.0,1,2,6,choice,After,Color,1,2,1.0,4,4,0,0
65,65,w2457106,Red,0.0,1875.0,1,3,6,choice,After,Color,3,-3,-1.0,4,4,2,3
66,66,w2457106,Red,1.0,2786.0,1,1,7,choice,Before,Color,1,2,1.0,3,3,1,1
67,67,w2457106,Blue,0.0,2000.0,1,2,7,choice,Before,Color,2,-1,0.0,3,3,0,0
68,68,w2457106,Green,1.0,4340.0,0,3,7,choice,Before,Color,3,-3,1.0,3,3,2,2
69,69,w2457106,Food,1.0,3073.0,1,1,8,choice,After,Category,3,2,1.0,2,2,0,0
70,70,w2457106,Animal,1.0,2785.0,0,2,8,choice,After,Category,2,-1,3.0,2,2,2,2
71,71,w2457106,Scene,0.0,968.0,1,3,8,choice,After,Category,1,-1,1.0,2,2,0,1
72,72,w88c84d1,Yellow,0.0,2999.0,0,1,1,choice,Before,Color,3,3,1.0,4,4,1,1
73,73,w88c84d1,Green,1.0,1509.0,0,2,1,choice,Before,Color,1,-2,-2.0,4,4,1,1
74,74,w88c84d1,Blue,1.0,1185.0,1,3,1,choice,Before,Color,2,1,1.0,4,4,2,2
75,75,w88c84d1,Green,0.0,1568.0,1,1,2,choice,After,Color,3,-1,3.0,4,4,1,1
76,76,w88c84d1,Blue,1.0,1279.0,0,2,2,choice,After,Color,2,-1,-1.0,4,4,2,2
77,77,w88c84d1,Red,0.0,1763.0,0,3,2,choice,After,Color,1,2,1.0,4,4,1,1
78,78,w88c84d1,Scene,1.0,4490.0,0,1,3,choice,Before,Category,3,-1,-1.0,4,4,2,2
79,79,w88c84d1,Object,1.0,2257.0,0,2,3,choice,Before,Category,1,-2,-2.0,4,4,0,0
80,80,w88c84d1,Animal,0.0,605.0,0,3,3,choice,Before,Category,2,3,3.0,4,4,2,2
81,81,w88c84d1,Object,1.0,2568.0,1,1,4,choice,After,Category,2,2,0.0,4,4,1,1
82,82,w88c84d1,Animal,0.0,4119.0,1,2,4,choice,After,Category,1,-1,1.0,4,4,0,0
83,83,w88c84d1,Food,0.0,2732.0,1,3,4,choice,After,Category,3,-1,-1.0,4,4,3,3
84,84,w88c84d1,Red,1.0,1783.0,1,1,5,choice,Before,Color,2,3,3.0,4,4,2,2
85,85,w88c84d1,Green,0.0,636.0,1,2,5,choice,Before,Color,3,-2,-2.0,4,4,1,1
86,86,w88c84d1,Blue,0.0,687.0,1,3,5,choice,Before,Color,1,-1,-1.0,4,4,1,1
87,87,w88c84d1,Food,,,0,1,6,choice,After,Category,3,1,-2.0,2,2,1,1
88,88,w88c84d1,Animal,0.0,3360.0,1,2,6,choice,After,Category,1,-1,1.0,2,2,1,1
89,89,w88c84d1,Scene,0.0,1082.0,0,3,6,choice,After,Category,2,1,0.0,2,2,0,0
90,90,w88c84d1,Yellow,0.0,2070.0,1,1,7,choice,Before,Color,2,-1,-1.0,2,2,0,0
91,91,w88c84d1,Blue,0.0,1405.0,1,2,7,choice,Before,Color,3,-1,-1.0,2,2,1,1
92,92,w88c84d1,Green,1.0,1078.0,1,3,7,choice,Before,Color,1,2,2.0,2,2,1,1
93,93,w88c84d1,Object,0.0,2342.0,1,1,8,choice,After,Category,3,-2,-3.0,1,1,0,0
94,94,w88c84d1,Food,1.0,2294.0,1,2,8,choice,After,Category,1,2,2.0,1,1,1,1
95,95,w88c84d1,Animal,0.0,778.0,0,3,8,choice,After,Category,2,1,3.0,1,1,0,0
96,114,we24a9dd,Yellow,1.0,1223.0,1,1,1,choice,After,Color,3,2,2.0,1,1,0,1
97,115,we24a9dd,Red,1.0,960.0,0,2,1,choice,After,Color,2,-4,-1.0,1,1,1,2
98,116,we24a9dd,Green,1.0,1710.0,1,3,1,choice,After,Color,1,2,-1.0,1,1,0,1
99,117,we24a9dd,Food,1.0,4542.0,0,1,2,choice,Before,Category,2,-3,-1.0,4,4,1,1
100,118,we24a9dd,Scene,1.0,1916.0,1,2,2,choice,Before,Category,3,3,0.0,4,4,2,2
101,119,we24a9dd,Object,0.0,5136.0,1,3,2,choice,Before,Category,1,-2,0.0,4,4,1,1
102,120,we24a9dd,Animal,1.0,4491.0,1,1,3,choice,After,Category,1,2,1.0,5,5,1,2
103,121,we24a9dd,Scene,1.0,3876.0,0,2,3,choice,After,Category,2,-2,-3.0,5,5,2,2
104,122,we24a9dd,Food,1.0,1304.0,1,3,3,choice,After,Category,3,1,1.0,5,5,2,2
105,123,we24a9dd,Object,1.0,999.0,0,1,4,choice,Before,Category,1,-1,0.0,1,1,1,1
106,124,we24a9dd,Animal,1.0,384.0,1,2,4,choice,Before,Category,3,2,1.0,1,1,0,0
107,125,we24a9dd,Scene,1.0,1041.0,0,3,4,choice,Before,Category,2,-1,0.0,1,1,0,0
108,126,we24a9dd,Yellow,1.0,3440.0,0,1,5,choice,After,Color,1,-1,1.0,4,4,1,1
109,127,we24a9dd,Green,0.0,961.0,1,2,5,choice,After,Color,3,-1,-1.0,4,4,3,3
110,128,we24a9dd,Blue,1.0,989.0,1,3,5,choice,After,Color,2,3,1.0,4,4,0,1
111,129,we24a9dd,Blue,1.0,3445.0,0,1,6,choice,Before,Color,2,-1,0.0,4,4,1,1
112,130,we24a9dd,Yellow,1.0,869.0,1,2,6,choice,Before,Color,1,1,1.0,4,4,1,2
113,131,we24a9dd,Red,0.0,830.0,1,3,6,choice,Before,Color,3,-2,-2.0,4,4,2,2
114,132,we24a9dd,Red,1.0,1881.0,0,1,7,choice,After,Color,1,-2,-1.0,1,1,0,0
115,133,we24a9dd,Blue,1.0,893.0,1,2,7,choice,After,Color,2,3,1.0,1,1,0,0
116,134,we24a9dd,Green,0.0,1752.0,1,3,7,choice,After,Color,3,-1,1.0,1,1,1,1
117,135,we24a9dd,Food,1.0,1386.0,1,1,8,choice,Before,Category,3,2,-3.0,1,1,0,0
118,136,we24a9dd,Scene,0.0,1820.0,1,2,8,choice,Before,Category,1,-2,0.0,1,1,0,0
119,137,we24a9dd,Animal,1.0,722.0,1,3,8,choice,Before,Category,2,1,2.0,1,1,1,2
120,138,wf456a28,Animal,0.0,4467.0,1,1,1,choice,After,Category,2,-4,-3.0,4,4,1,1
121,139,wf456a28,Object,1.0,3569.0,1,2,1,choice,After,Category,3,2,2.0,4,4,2,2
122,140,wf456a28,Food,1.0,3674.0,1,3,1,choice,After,Category,1,2,1.0,4,4,1,1
123,141,wf456a28,Blue,1.0,2575.0,0,1,2,choice,Before,Color,3,-2,2.0,6,6,3,3
124,142,wf456a28,Green,,,0,2,2,choice,Before,Color,1,1,1.0,6,6,1,1
125,143,wf456a28,Yellow,1.0,1918.0,1,3,2,choice,Before,Color,2,1,0.0,6,6,2,2
126,144,wf456a28,Blue,0.0,3162.0,1,1,3,choice,After,Color,1,-2,-2.0,4,4,1,1
127,145,wf456a28,Green,0.0,6457.0,1,2,3,choice,After,Color,3,-1,-1.0,4,4,2,2
128,146,wf456a28,Red,1.0,1212.0,1,3,3,choice,After,Color,2,2,3.0,4,4,1,1
129,147,wf456a28,Animal,0.0,4880.0,0,1,4,choice,Before,Category,3,1,-4.0,5,5,2,3
130,148,wf456a28,Scene,0.0,1113.0,1,2,4,choice,Before,Category,2,-3,0.0,5,5,2,2
131,149,wf456a28,Object,1.0,3184.0,1,3,4,choice,Before,Category,1,1,1.0,5,5,1,1
132,150,wf456a28,Blue,0.0,3904.0,1,1,5,choice,After,Color,2,-1,-1.0,5,5,2,2
133,151,wf456a28,Green,0.0,4733.0,1,2,5,choice,After,Color,3,-1,0.0,5,5,2,2
134,152,wf456a28,Yellow,1.0,1189.0,1,3,5,choice,After,Color,1,1,1.0,5,5,1,2
135,153,wf456a28,Scene,0.0,2229.0,1,1,6,choice,Before,Category,3,-2,-1.0,5,5,3,3
136,154,wf456a28,Object,1.0,4972.0,0,2,6,choice,Before,Category,1,-1,-2.0,5,5,0,1
137,155,wf456a28,Food,0.0,2151.0,0,3,6,choice,Before,Category,2,3,2.0,5,5,2,2
138,156,wf456a28,Scene,0.0,5039.0,0,1,7,choice,After,Category,1,1,1.0,3,3,1,3
139,157,wf456a28,Object,1.0,5160.0,0,2,7,choice,After,Category,3,-2,-2.0,3,3,1,1
140,158,wf456a28,Animal,0.0,2625.0,1,3,7,choice,After,Category,2,-1,-1.0,3,3,1,1
141,159,wf456a28,Red,1.0,843.0,1,1,8,choice,Before,Color,3,3,4.0,4,4,3,3
142,160,wf456a28,Yellow,1.0,3055.0,1,2,8,choice,Before,Color,2,1,1.0,4,4,1,2
143,161,wf456a28,Green,0.0,815.0,1,3,8,choice,Before,Color,1,-1,-1.0,4,4,0,0
144,162,w05ede5c,Food,1.0,3559.0,1,1,1,choice,Before,Category,1,1,-2.0,4,4,1,2
145,163,w05ede5c,Object,1.0,1719.0,1,2,1,choice,Before,Category,3,2,1.0,4,4,1,1
146,164,w05ede5c,Animal,0.0,1611.0,1,3,1,choice,Before,Category,2,-2,2.0,4,4,2,2
147,165,w05ede5c,Food,1.0,3379.0,1,1,2,choice,After,Category,1,2,2.0,5,5,1,1
148,166,w05ede5c,Scene,0.0,1182.0,1,2,2,choice,After,Category,3,-2,-3.0,5,5,3,3
149,167,w05ede5c,Object,1.0,1426.0,0,3,2,choice,After,Category,2,-1,-1.0,5,5,1,1
150,168,w05ede5c,Animal,0.0,2159.0,1,1,3,choice,Before,Category,2,-1,-1.0,4,4,2,2
151,169,w05ede5c,Food,0.0,3890.0,0,2,3,choice,Before,Category,3,1,-3.0,4,4,1,1
152,170,w05ede5c,Scene,1.0,2118.0,0,3,3,choice,Before,Category,1,-2,-2.0,4,4,1,2
153,171,w05ede5c,Yellow,0.0,2558.0,1,1,4,choice,After,Color,3,-3,-3.0,5,5,3,3
154,172,w05ede5c,Red,1.0,1791.0,1,2,4,choice,After,Color,1,1,-2.0,5,5,1,1
155,173,w05ede5c,Blue,1.0,1298.0,0,3,4,choice,After,Color,2,-1,-1.0,5,5,1,1
156,174,w05ede5c,Yellow,1.0,2077.0,1,1,5,choice,Before,Color,2,3,2.0,4,4,1,1
157,175,w05ede5c,Blue,1.0,2257.0,0,2,5,choice,Before,Color,1,-2,-2.0,4,4,0,1
158,176,w05ede5c,Green,0.0,634.0,1,3,5,choice,Before,Color,3,-3,0.0,4,4,3,3
159,177,w05ede5c,Yellow,1.0,3613.0,1,1,6,choice,After,Color,1,1,1.0,4,4,1,1
160,178,w05ede5c,Green,0.0,2096.0,1,2,6,choice,After,Color,3,-1,-2.0,4,4,2,3
161,179,w05ede5c,Red,1.0,848.0,1,3,6,choice,After,Color,2,1,3.0,4,4,1,1
162,180,w05ede5c,Object,1.0,3113.0,1,1,7,choice,Before,Category,2,3,3.0,4,4,2,2
163,181,w05ede5c,Animal,0.0,1708.0,1,2,7,choice,Before,Category,1,-2,-2.0,4,4,1,1
164,182,w05ede5c,Scene,1.0,1696.0,0,3,7,choice,Before,Category,3,-1,-3.0,4,4,1,1
165,183,w05ede5c,Red,1.0,4293.0,0,1,8,choice,After,Color,1,-1,2.0,4,4,1,1
166,184,w05ede5c,Green,1.0,2206.0,0,2,8,choice,After,Color,2,-1,-1.0,4,4,1,1
167,185,w05ede5c,Blue,0.0,1621.0,0,3,8,choice,After,Color,3,2,-6.0,4,4,2,3
168,186,w612200e,Food,1.0,1123.0,0,1,2,choice,Before,Category,1,-1,1.0,1,1,0,0
169,187,w612200e,Scene,0.0,409.0,1,2,2,choice,Before,Category,3,-3,1.0,1,1,1,1
170,188,w612200e,Object,1.0,893.0,1,3,2,choice,Before,Category,2,3,1.0,1,1,0,0
171,189,w612200e,Animal,1.0,927.0,1,1,3,choice,After,Category,2,4,4.0,3,3,0,0
172,190,w612200e,Food,0.0,547.0,1,2,3,choice,After,Category,3,-2,-2.0,3,3,2,2
173,191,w612200e,Scene,1.0,364.0,0,3,3,choice,After,Category,1,-2,2.0,3,3,1,1
174,192,w612200e,Scene,1.0,2002.0,1,1,4,choice,Before,Category,2,1,-3.0,2,2,1,1
175,193,w612200e,Object,0.0,846.0,0,2,4,choice,Before,Category,1,1,-2.0,2,2,0,1
176,194,w612200e,Animal,0.0,1538.0,1,3,4,choice,Before,Category,3,-1,0.0,2,2,1,1
177,195,w612200e,Blue,1.0,1694.0,1,1,5,choice,After,Color,1,1,2.0,2,2,0,0
178,196,w612200e,Yellow,0.0,658.0,1,2,5,choice,After,Color,2,-2,-2.0,2,2,2,3
179,197,w612200e,Green,0.0,463.0,0,3,5,choice,After,Color,3,2,-3.0,2,2,0,0
180,198,w612200e,Green,1.0,1155.0,1,1,6,choice,Before,Color,3,3,0.0,3,3,1,1
181,199,w612200e,Red,0.0,269.0,0,2,6,choice,Before,Color,2,1,4.0,3,3,1,2
182,200,w612200e,Yellow,0.0,623.0,1,3,6,choice,Before,Color,1,-1,-1.0,3,3,1,2
183,201,w612200e,Object,1.0,890.0,0,1,7,choice,After,Category,2,-1,0.0,1,1,0,0
184,202,w612200e,Animal,0.0,651.0,0,2,7,choice,After,Category,1,2,-1.0,1,1,0,0
185,203,w612200e,Scene,1.0,929.0,0,3,7,choice,After,Category,3,-1,-1.0,1,1,1,2
186,204,wb8feabb,Green,1.0,1953.0,1,1,1,choice,After,Color,1,2,2.0,5,5,1,1
187,205,wb8feabb,Red,0.0,2530.0,1,2,1,choice,After,Color,2,-3,-4.0,5,5,1,2
188,206,wb8feabb,Yellow,1.0,2674.0,1,3,1,choice,After,Color,3,1,-3.0,5,5,3,3
189,207,wb8feabb,Object,0.0,3687.0,0,1,2,choice,Before,Category,1,2,2.0,4,4,1,1
190,208,wb8feabb,Food,1.0,3018.0,0,2,2,choice,Before,Category,2,-3,3.0,4,4,1,1
191,209,wb8feabb,Scene,1.0,5141.0,1,3,2,choice,Before,Category,3,1,1.0,4,4,2,2
192,210,wb8feabb,Red,1.0,2096.0,1,1,3,choice,After,Color,2,3,3.0,3,3,2,2
193,211,wb8feabb,Blue,0.0,3928.0,1,2,3,choice,After,Color,1,-2,-2.0,3,3,1,2
194,212,wb8feabb,Green,1.0,1259.0,0,3,3,choice,After,Color,3,-1,-1.0,3,3,0,0
195,213,wb8feabb,Animal,1.0,1128.0,1,1,4,choice,Before,Category,3,2,2.0,5,5,3,3
196,214,wb8feabb,Object,,,0,2,4,choice,Before,Category,1,-2,-2.0,5,5,0,0
197,215,wb8feabb,Scene,1.0,1097.0,1,3,4,choice,Before,Category,2,1,3.0,5,5,2,2
198,216,wb8feabb,Animal,1.0,1425.0,1,1,5,choice,After,Category,2,2,1.0,1,1,0,0
199,217,wb8feabb,Object,1.0,1889.0,0,2,5,choice,After,Category,3,-4,-1.0,1,1,0,0
200,218,wb8feabb,Food,0.0,1364.0,0,3,5,choice,After,Category,1,2,-1.0,1,1,1,1
201,219,wb8feabb,Red,0.0,1450.0,1,1,6,choice,Before,Color,3,-6,-2.0,4,4,2,2
202,220,wb8feabb,Blue,1.0,689.0,1,2,6,choice,Before,Color,2,2,3.0,4,4,2,2
203,221,wb8feabb,Yellow,1.0,676.0,1,3,6,choice,Before,Color,1,2,2.0,4,4,0,0
204,222,wb8feabb,Blue,1.0,854.0,0,1,7,choice,After,Color,2,-4,3.0,2,2,1,1
205,223,wb8feabb,Green,0.0,1183.0,0,2,7,choice,After,Color,3,1,2.0,2,2,1,1
206,224,wb8feabb,Red,1.0,879.0,1,3,7,choice,After,Color,1,2,2.0,2,2,0,0
207,225,wb8feabb,Scene,1.0,1075.0,0,1,8,choice,Before,Category,1,-1,1.0,1,1,0,0
208,226,wb8feabb,Animal,1.0,1171.0,1,2,8,choice,Before,Category,2,3,0.0,1,1,1,1
209,227,wb8feabb,Food,1.0,1887.0,0,3,8,choice,Before,Category,3,-2,1.0,1,1,0,0
210,228,w4c2a923,Animal,0.0,3142.0,1,1,1,choice,After,Category,2,-1,-4.0,5,5,1,1
211,229,w4c2a923,Object,1.0,644.0,1,2,1,choice,After,Category,3,2,4.0,5,5,3,3
212,230,w4c2a923,Food,1.0,2160.0,0,3,1,choice,After,Category,1,-2,-1.0,5,5,1,1
213,231,w4c2a923,Green,0.0,1952.0,0,1,2,choice,Before,Color,1,1,-1.0,4,4,0,0
214,232,w4c2a923,Blue,0.0,2555.0,1,2,2,choice,Before,Color,2,-1,0.0,4,4,1,2
215,233,w4c2a923,Red,1.0,591.0,0,3,2,choice,Before,Color,3,-2,0.0,4,4,3,3
216,234,w4c2a923,Animal,0.0,1968.0,1,1,3,choice,After,Category,2,-1,3.0,2,2,1,1
217,235,w4c2a923,Scene,0.0,1543.0,1,2,3,choice,After,Category,1,-2,-1.0,2,2,0,1
218,236,w4c2a923,Food,1.0,984.0,1,3,3,choice,After,Category,3,2,-3.0,2,2,1,1
219,237,w4c2a923,Blue,0.0,1507.0,1,1,4,choice,Before,Color,2,-1,-2.0,1,1,0,0
220,238,w4c2a923,Red,1.0,1891.0,1,2,4,choice,Before,Color,1,2,1.0,1,1,0,0
221,239,w4c2a923,Yellow,1.0,395.0,0,3,4,choice,Before,Color,3,-1,2.0,1,1,1,2
222,240,w4c2a923,Food,0.0,3475.0,0,1,5,choice,After,Category,3,1,0.0,1,1,1,1
223,241,w4c2a923,Scene,0.0,2124.0,0,2,5,choice,After,Category,1,2,-1.0,1,1,0,0
224,242,w4c2a923,Animal,0.0,1136.0,1,3,5,choice,After,Category,2,-2,1.0,1,1,0,0
225,243,w4c2a923,Red,1.0,1709.0,1,1,6,choice,Before,Color,2,2,2.0,1,1,0,0
226,244,w4c2a923,Yellow,1.0,1120.0,0,2,6,choice,Before,Color,1,-1,1.0,1,1,0,0
227,245,w4c2a923,Green,0.0,609.0,1,3,6,choice,Before,Color,3,-1,-4.0,1,1,1,1
228,246,w4c2a923,Animal,0.0,1116.0,0,1,7,choice,After,Category,1,2,2.0,1,1,1,1
229,247,w4c2a923,Scene,1.0,1900.0,0,2,7,choice,After,Category,3,-2,-4.0,1,1,0,0
230,248,w4c2a923,Object,1.0,1497.0,1,3,7,choice,After,Category,2,1,0.0,1,1,0,0
231,249,w1eadd53,Green,1.0,2772.0,1,1,1,choice,Before,Color,2,3,3.0,3,3,1,1
232,250,w1eadd53,Yellow,1.0,2437.0,0,2,1,choice,Before,Color,1,-2,1.0,3,3,1,1
233,251,w1eadd53,Blue,0.0,1004.0,1,3,1,choice,Before,Color,3,-1,2.0,3,3,1,1
234,252,w1eadd53,Food,0.0,3283.0,1,1,2,choice,After,Category,1,-2,-2.0,5,5,1,1
235,253,w1eadd53,Object,1.0,2209.0,0,2,2,choice,After,Category,2,-2,0.0,5,5,1,1
236,254,w1eadd53,Scene,1.0,1537.0,1,3,2,choice,After,Category,3,6,6.0,5,5,3,3
237,255,w1eadd53,Scene,0.0,2775.0,1,1,3,choice,Before,Category,1,-1,-1.0,5,5,1,1
238,256,w1eadd53,Animal,0.0,1669.0,0,2,3,choice,Before,Category,2,1,0.0,5,5,1,1
239,257,w1eadd53,Food,1.0,920.0,1,3,3,choice,Before,Category,3,1,1.0,5,5,3,3
240,258,w1eadd53,Object,0.0,2700.0,1,1,4,choice,After,Category,1,-2,1.0,4,4,0,0
241,259,w1eadd53,Animal,1.0,3925.0,0,2,4,choice,After,Category,3,-1,0.0,4,4,2,2
242,260,w1eadd53,Scene,1.0,856.0,1,3,4,choice,After,Category,2,4,4.0,4,4,2,2
243,261,w1eadd53,Food,1.0,2015.0,1,1,5,choice,Before,Category,3,2,0.0,3,3,2,2
244,262,w1eadd53,Scene,1.0,2759.0,1,2,5,choice,Before,Category,1,1,2.0,3,3,1,2
245,263,w1eadd53,Animal,0.0,4189.0,1,3,5,choice,Before,Category,2,-3,2.0,3,3,0,0
246,264,w1eadd53,Yellow,0.0,3998.0,1,1,6,choice,After,Color,1,-2,-1.0,5,5,0,0
247,265,w1eadd53,Green,1.0,1295.0,1,2,6,choice,After,Color,3,5,5.0,5,5,3,3
248,266,w1eadd53,Red,0.0,5386.0,1,3,6,choice,After,Color,2,-2,-2.0,5,5,2,2
249,267,w1eadd53,Red,1.0,2184.0,1,1,7,choice,Before,Color,3,1,5.0,3,3,2,3
250,268,w1eadd53,Blue,0.0,781.0,1,2,7,choice,Before,Color,1,-2,-2.0,3,3,0,0
251,269,w1eadd53,Yellow,1.0,2744.0,1,3,7,choice,Before,Color,2,1,3.0,3,3,1,1
252,270,w1eadd53,Blue,,,0,1,8,choice,After,Color,3,-2,2.0,3,3,1,2
253,271,w1eadd53,Green,1.0,3222.0,1,2,8,choice,After,Color,2,1,4.0,3,3,1,1
254,272,w1eadd53,Red,0.0,2797.0,0,3,8,choice,After,Color,1,2,2.0,3,3,1,1
255,273,w941cd9f,Animal,1.0,6867.0,0,1,1,choice,After,Category,3,-1,1.0,4,4,2,2
256,274,w941cd9f,Food,1.0,7215.0,1,2,1,choice,After,Category,1,1,1.0,4,4,1,2
257,275,w941cd9f,Scene,0.0,1447.0,0,3,1,choice,After,Category,2,1,1.0,4,4,1,2
258,276,w941cd9f,Green,1.0,1252.0,1,1,2,choice,Before,Color,3,2,2.0,3,3,1,2
259,277,w941cd9f,Blue,0.0,1223.0,1,2,2,choice,Before,Color,2,-3,-2.0,3,3,2,3
260,278,w941cd9f,Red,1.0,1137.0,1,3,2,choice,Before,Color,1,1,1.0,3,3,0,1
261,279,w941cd9f,Yellow,1.0,2068.0,1,1,3,choice,After,Color,2,4,1.0,4,4,1,1
262,280,w941cd9f,Blue,0.0,2084.0,1,2,3,choice,After,Color,1,-2,-1.0,4,4,1,1
263,281,w941cd9f,Red,1.0,2382.0,0,3,3,choice,After,Color,3,-1,1.0,4,4,2,3
264,282,w941cd9f,Object,1.0,1943.0,1,1,4,choice,Before,Category,2,4,3.0,5,5,2,2
265,283,w941cd9f,Food,0.0,872.0,1,2,4,choice,Before,Category,3,-1,-1.0,5,5,2,2
266,284,w941cd9f,Animal,0.0,1206.0,1,3,4,choice,Before,Category,1,-1,-1.0,5,5,1,1
267,285,w941cd9f,Object,0.0,3859.0,0,1,5,choice,After,Category,1,1,1.0,4,4,0,1
268,286,w941cd9f,Animal,1.0,671.0,1,2,5,choice,After,Category,3,1,1.0,4,4,2,2
269,287,w941cd9f,Scene,0.0,1198.0,1,3,5,choice,After,Category,2,-3,-3.0,4,4,2,3
270,288,w941cd9f,Scene,0.0,2227.0,1,1,6,choice,Before,Category,2,-1,-3.0,3,3,1,2
271,289,w941cd9f,Food,1.0,3127.0,1,2,6,choice,Before,Category,3,1,0.0,3,3,2,2
272,290,w941cd9f,Animal,1.0,862.0,0,3,6,choice,Before,Category,1,-2,-1.0,3,3,0,2
273,291,w941cd9f,Blue,0.0,1250.0,1,1,7,choice,After,Color,3,-1,-4.0,4,4,2,2
274,292,w941cd9f,Yellow,1.0,2429.0,1,2,7,choice,After,Color,2,4,4.0,4,4,1,1
275,293,w941cd9f,Green,0.0,1132.0,1,3,7,choice,After,Color,1,-2,-1.0,4,4,1,3
276,294,w941cd9f,Yellow,0.0,1819.0,1,1,8,choice,Before,Color,2,-4,-3.0,2,2,0,0
277,295,w941cd9f,Blue,1.0,657.0,1,2,8,choice,Before,Color,3,2,3.0,2,2,2,2
278,296,w941cd9f,Red,1.0,540.0,1,3,8,choice,Before,Color,1,1,1.0,2,2,0,2
279,297,w3fb3b5b,Object,1.0,2116.0,1,1,1,choice,Before,Category,3,1,5.0,3,3,2,2
280,298,w3fb3b5b,Food,1.0,1820.0,1,2,1,choice,Before,Category,1,2,-1.0,3,3,0,0
281,299,w3fb3b5b,Animal,0.0,1012.0,1,3,1,choice,Before,Category,2,-2,-3.0,3,3,1,2
282,300,w3fb3b5b,Green,1.0,3255.0,1,1,2,choice,After,Color,1,2,2.0,5,5,1,1
283,301,w3fb3b5b,Blue,1.0,2452.0,0,2,2,choice,After,Color,3,-1,2.0,5,5,2,2
284,302,w3fb3b5b,Yellow,0.0,2346.0,0,3,2,choice,After,Color,2,1,0.0,5,5,2,2
285,303,w3fb3b5b,Animal,1.0,3126.0,0,1,3,choice,Before,Category,1,-1,1.0,4,4,1,1
286,304,w3fb3b5b,Scene,0.0,1881.0,1,2,3,choice,Before,Category,2,-1,-4.0,4,4,2,2
287,305,w3fb3b5b,Food,1.0,1442.0,1,3,3,choice,Before,Category,3,2,4.0,4,4,1,1
288,306,w3fb3b5b,Object,0.0,3546.0,1,1,4,choice,After,Category,1,-2,-1.0,2,2,0,0
289,307,w3fb3b5b,Animal,1.0,1686.0,0,2,4,choice,After,Category,3,-3,2.0,2,2,1,1
290,308,w3fb3b5b,Scene,0.0,2432.0,0,3,4,choice,After,Category,2,4,-4.0,2,2,1,1
291,309,w3fb3b5b,Food,1.0,2797.0,0,1,5,choice,Before,Category,1,-2,-2.0,3,3,0,0
292,310,w3fb3b5b,Object,0.0,4385.0,0,2,5,choice,Before,Category,3,3,1.0,3,3,2,2
293,311,w3fb3b5b,Animal,0.0,2937.0,0,3,5,choice,Before,Category,2,1,3.0,3,3,1,1
294,312,w3fb3b5b,Blue,1.0,3760.0,1,1,6,choice,After,Color,2,2,1.0,2,2,1,1
295,313,w3fb3b5b,Yellow,0.0,1290.0,0,2,6,choice,After,Color,1,2,2.0,2,2,0,0
296,314,w3fb3b5b,Red,0.0,2352.0,1,3,6,choice,After,Color,3,-4,0.0,2,2,1,2
297,315,w3fb3b5b,Red,1.0,3158.0,1,1,8,choice,After,Color,3,2,1.0,2,2,1,1
298,316,w3fb3b5b,Yellow,0.0,1872.0,1,2,8,choice,After,Color,2,-2,3.0,2,2,1,1
299,317,w3fb3b5b,Green,0.0,2960.0,0,3,8,choice,After,Color,1,1,-2.0,2,2,0,1
300,318,w1ef67ab,Blue,0.0,1921.0,1,1,1,choice,After,Color,2,-1,0.0,6,6,2,2
301,319,w1ef67ab,Yellow,1.0,3214.0,1,2,1,choice,After,Color,3,2,1.0,6,6,2,2
302,320,w1ef67ab,Green,0.0,1346.0,1,3,1,choice,After,Color,1,-1,-1.0,6,6,1,1
303,321,w1ef67ab,Scene,1.0,3178.0,1,1,2,choice,Before,Category,1,2,2.0,4,4,1,2
304,322,w1ef67ab,Food,0.0,1527.0,1,2,2,choice,Before,Category,3,-2,1.0,4,4,3,3
305,323,w1ef67ab,Object,1.0,920.0,0,3,2,choice,Before,Category,2,-1,1.0,4,4,0,0
306,324,w1ef67ab,Scene,0.0,2307.0,1,1,3,choice,After,Category,3,-5,-4.0,6,6,3,3
307,325,w1ef67ab,Animal,1.0,2122.0,1,2,3,choice,After,Category,2,3,2.0,6,6,2,2
308,326,w1ef67ab,Object,1.0,2514.0,1,3,3,choice,After,Category,1,1,2.0,6,6,1,1
309,327,w1ef67ab,Yellow,0.0,2338.0,1,1,4,choice,Before,Color,2,-1,-1.0,3,3,1,2
310,328,w1ef67ab,Green,1.0,4738.0,1,2,4,choice,Before,Color,1,2,1.0,3,3,0,1
311,329,w1ef67ab,Red,0.0,603.0,1,3,4,choice,Before,Color,3,-2,-1.0,3,3,2,3
312,330,w1ef67ab,Green,1.0,1536.0,1,1,5,choice,After,Color,3,1,1.0,5,5,2,2
313,331,w1ef67ab,Red,0.0,2959.0,0,2,5,choice,After,Color,2,1,0.0,5,5,2,2
314,332,w1ef67ab,Blue,1.0,2319.0,0,3,5,choice,After,Color,1,-1,1.0,5,5,1,1
315,333,w1ef67ab,Animal,1.0,2647.0,1,1,6,choice,Before,Category,1,1,2.0,5,5,1,2
316,334,w1ef67ab,Food,1.0,1571.0,0,2,6,choice,Before,Category,3,-2,1.0,5,5,2,2
317,335,w1ef67ab,Scene,0.0,1245.0,1,3,6,choice,Before,Category,2,-1,3.0,5,5,2,2
318,336,w1ef67ab,Yellow,1.0,1427.0,1,1,7,choice,After,Color,2,1,3.0,2,2,1,1
319,337,w1ef67ab,Blue,0.0,826.0,0,2,7,choice,After,Color,3,1,-3.0,2,2,1,1
320,338,w1ef67ab,Green,1.0,570.0,0,3,7,choice,After,Color,1,-2,1.0,2,2,0,2
321,339,w1ef67ab,Food,0.0,3142.0,1,1,8,choice,Before,Category,1,-2,-2.0,3,3,0,1
322,340,w1ef67ab,Object,1.0,1523.0,1,2,8,choice,Before,Category,3,4,4.0,3,3,2,3
323,341,w1ef67ab,Animal,0.0,921.0,1,3,8,choice,Before,Category,2,-3,-3.0,3,3,1,2
324,342,wa1a03f2,Scene,0.0,3482.0,0,1,1,choice,Before,Category,2,2,-1.0,2,2,0,1
325,343,wa1a03f2,Animal,1.0,4644.0,0,2,1,choice,Before,Category,3,-2,-5.0,2,2,1,2
326,344,wa1a03f2,Food,1.0,4639.0,0,3,1,choice,Before,Category,1,-2,-2.0,2,2,1,2
327,345,wa1a03f2,Green,1.0,3763.0,0,1,2,choice,After,Color,3,-2,3.0,2,2,0,0
328,346,wa1a03f2,Blue,0.0,1544.0,1,2,2,choice,After,Color,2,-1,3.0,2,2,1,3
329,347,wa1a03f2,Red,0.0,3431.0,0,3,2,choice,After,Color,1,2,2.0,2,2,1,1
330,348,wa1a03f2,Scene,1.0,4928.0,0,1,3,choice,Before,Category,3,-2,2.0,2,2,1,1
331,349,wa1a03f2,Animal,0.0,3289.0,1,2,3,choice,Before,Category,2,-1,-3.0,2,2,0,1
332,350,wa1a03f2,Object,1.0,1201.0,1,3,3,choice,Before,Category,1,2,-1.0,2,2,1,1
333,351,wa1a03f2,Animal,1.0,3132.0,0,1,4,choice,After,Category,1,-2,0.0,2,2,1,1
334,352,wa1a03f2,Food,1.0,2129.0,1,2,4,choice,After,Category,3,1,1.0,2,2,1,1
335,353,wa1a03f2,Object,0.0,1709.0,1,3,4,choice,After,Category,2,-1,-1.0,2,2,0,0
336,354,wa1a03f2,Red,0.0,2313.0,1,1,5,choice,Before,Color,2,-4,-2.0,3,3,1,1
337,355,wa1a03f2,Blue,1.0,1333.0,1,2,5,choice,Before,Color,1,1,2.0,3,3,0,0
338,356,wa1a03f2,Green,0.0,1250.0,0,3,5,choice,Before,Color,3,2,0.0,3,3,2,2
339,357,wa1a03f2,Red,0.0,3063.0,1,1,6,choice,After,Color,2,-3,-3.0,2,2,1,1
340,358,wa1a03f2,Green,0.0,3792.0,0,2,6,choice,After,Color,3,5,1.0,2,2,1,1
341,359,wa1a03f2,Yellow,0.0,4239.0,1,3,6,choice,After,Color,1,-1,-1.0,2,2,0,0
342,360,wa1a03f2,Blue,1.0,4144.0,1,1,7,choice,Before,Color,3,4,3.0,3,3,2,2
343,361,wa1a03f2,Green,0.0,1436.0,1,2,7,choice,Before,Color,1,-2,-1.0,3,3,0,2
344,362,wa1a03f2,Yellow,0.0,971.0,1,3,7,choice,Before,Color,2,-3,-3.0,3,3,1,1
345,363,wa1a03f2,Animal,,,0,1,8,choice,After,Category,2,1,0.0,2,2,0,1
346,364,wa1a03f2,Object,1.0,3818.0,1,2,8,choice,After,Category,3,2,2.0,2,2,2,2
347,365,wa1a03f2,Food,0.0,2325.0,1,3,8,choice,After,Category,1,-1,-1.0,2,2,0,1
348,384,w59b3a22,Scene,,,0,1,1,choice,Before,Category,1,2,2.0,6,6,1,1
349,385,w59b3a22,Food,0.0,5247.0,0,2,1,choice,Before,Category,3,2,2.0,6,6,3,3
350,386,w59b3a22,Object,0.0,3396.0,1,3,1,choice,Before,Category,2,-2,-2.0,6,6,2,2
351,387,w59b3a22,Blue,1.0,4876.0,1,1,2,choice,After,Color,1,2,2.0,6,6,1,1
352,388,w59b3a22,Green,0.0,5554.0,0,2,2,choice,After,Color,2,1,1.0,6,6,2,2
353,389,w59b3a22,Yellow,0.0,3330.0,1,3,2,choice,After,Color,3,-3,-3.0,6,6,3,3
354,390,w59b3a22,Object,1.0,5994.0,0,1,3,choice,Before,Category,3,-2,1.0,6,6,3,3
355,391,w59b3a22,Scene,1.0,3675.0,1,2,3,choice,Before,Category,1,2,2.0,6,6,1,1
356,392,w59b3a22,Animal,0.0,6018.0,1,3,3,choice,Before,Category,2,-1,-1.0,6,6,2,2
357,393,w59b3a22,Yellow,1.0,2037.0,1,1,4,choice,After,Color,2,2,4.0,5,5,2,2
358,394,w59b3a22,Blue,0.0,1022.0,1,2,4,choice,After,Color,3,-6,-5.0,5,5,2,2
359,395,w59b3a22,Red,1.0,4171.0,1,3,4,choice,After,Color,1,2,2.0,5,5,1,1
360,396,w59b3a22,Scene,0.0,2928.0,1,1,5,choice,Before,Category,3,-4,2.0,6,6,3,3
361,397,w59b3a22,Animal,1.0,2795.0,1,2,5,choice,Before,Category,2,2,3.0,6,6,2,2
362,398,w59b3a22,Object,1.0,6221.0,1,3,5,choice,Before,Category,1,1,1.0,6,6,1,1
363,399,w59b3a22,Red,1.0,1916.0,0,1,6,choice,After,Color,3,-1,2.0,5,5,2,2
364,400,w59b3a22,Blue,0.0,3270.0,1,2,6,choice,After,Color,1,-1,-1.0,5,5,1,1
365,401,w59b3a22,Yellow,1.0,4414.0,1,3,6,choice,After,Color,2,4,4.0,5,5,2,3
366,402,w59b3a22,Object,1.0,2960.0,0,1,7,choice,Before,Category,1,-1,-1.0,5,5,1,1
367,403,w59b3a22,Scene,1.0,2761.0,1,2,7,choice,Before,Category,3,2,3.0,5,5,3,3
368,404,w59b3a22,Food,0.0,3729.0,0,3,7,choice,Before,Category,2,1,-3.0,5,5,1,1
369,405,w59b3a22,Blue,1.0,3996.0,1,1,8,choice,After,Color,2,3,0.0,3,3,0,1
370,406,w59b3a22,Red,0.0,1260.0,1,2,8,choice,After,Color,3,-1,0.0,3,3,2,2
371,407,w59b3a22,Green,0.0,4835.0,1,3,8,choice,After,Color,1,-1,-1.0,3,3,1,1
372,408,w82f4ec0,Food,1.0,3922.0,0,1,1,choice,Before,Category,1,-1,1.0,4,4,1,1
373,409,w82f4ec0,Object,1.0,2484.0,0,2,1,choice,Before,Category,3,-3,0.0,4,4,2,2
374,410,w82f4ec0,Animal,0.0,4437.0,0,3,1,choice,Before,Category,2,3,0.0,4,4,1,1
375,411,w82f4ec0,Food,1.0,2961.0,0,1,2,choice,After,Category,2,-2,4.0,2,2,2,2
376,412,w82f4ec0,Scene,0.0,7283.0,0,2,2,choice,After,Category,3,1,2.0,2,2,0,0
377,413,w82f4ec0,Object,1.0,6755.0,1,3,2,choice,After,Category,1,1,-1.0,2,2,0,1
378,414,w82f4ec0,Green,0.0,4162.0,0,1,3,choice,Before,Color,3,3,4.0,2,2,1,2
379,415,w82f4ec0,Blue,1.0,4914.0,1,2,3,choice,Before,Color,1,1,-1.0,2,2,1,3
380,416,w82f4ec0,Red,0.0,2317.0,1,3,3,choice,Before,Color,2,-3,0.0,2,2,0,0
381,417,w82f4ec0,Scene,,,0,1,4,choice,After,Category,2,1,-4.0,2,2,2,2
382,418,w82f4ec0,Object,1.0,1801.0,1,2,4,choice,After,Category,1,2,1.0,2,2,0,0
383,419,w82f4ec0,Animal,0.0,1187.0,1,3,4,choice,After,Category,3,-1,2.0,2,2,0,1
384,420,w82f4ec0,Blue,1.0,1923.0,1,1,5,choice,Before,Color,2,4,0.0,1,1,0,1
385,421,w82f4ec0,Yellow,0.0,3922.0,1,2,5,choice,Before,Color,1,-1,1.0,1,1,0,2
386,422,w82f4ec0,Green,0.0,3734.0,1,3,5,choice,Before,Color,3,-2,-1.0,1,1,1,1
387,423,w82f4ec0,Object,0.0,2990.0,1,1,7,choice,Before,Category,3,-1,0.0,2,2,1,1
388,424,w82f4ec0,Animal,1.0,5897.0,1,2,7,choice,Before,Category,2,4,3.0,2,2,1,2
389,425,w82f4ec0,Scene,0.0,2547.0,1,3,7,choice,Before,Category,1,-2,2.0,2,2,0,0
390,426,w82f4ec0,Yellow,1.0,1352.0,1,1,8,choice,After,Color,2,1,0.0,1,1,0,0
391,427,w82f4ec0,Red,0.0,1805.0,1,2,8,choice,After,Color,3,-2,3.0,1,1,1,1
392,428,w82f4ec0,Green,,,0,3,8,choice,After,Color,1,2,-1.0,1,1,0,3
393,429,w8efa7d8,Blue,0.0,1126.0,1,1,1,choice,After,Color,3,-1,-1.0,4,4,3,3
394,430,w8efa7d8,Green,1.0,568.0,0,2,1,choice,After,Color,2,-1,-1.0,4,4,1,1
395,431,w8efa7d8,Yellow,1.0,353.0,1,3,1,choice,After,Color,1,1,1.0,4,4,0,1
396,432,w8efa7d8,Green,0.0,1082.0,1,1,2,choice,Before,Color,1,-1,-1.0,6,6,1,1
397,433,w8efa7d8,Red,0.0,543.0,1,2,2,choice,Before,Color,3,-2,-2.0,6,6,3,3
398,434,w8efa7d8,Blue,1.0,287.0,1,3,2,choice,Before,Color,2,2,2.0,6,6,2,2
399,435,w8efa7d8,Yellow,0.0,1206.0,0,1,3,choice,After,Color,3,1,-2.0,2,2,2,2
400,436,w8efa7d8,Red,0.0,606.0,1,2,3,choice,After,Color,2,-1,-3.0,2,2,0,0
401,437,w8efa7d8,Green,0.0,563.0,1,3,3,choice,After,Color,1,-1,-1.0,2,2,0,0
402,477,wcc4ec90,Blue,1.0,2200.0,1,1,1,choice,Before,Color,3,2,6.0,6,6,3,3
403,478,wcc4ec90,Red,1.0,4487.0,1,2,1,choice,Before,Color,1,2,2.0,6,6,1,1
404,479,wcc4ec90,Green,0.0,1277.0,1,3,1,choice,Before,Color,2,-3,-2.0,6,6,2,2
405,480,wcc4ec90,Animal,1.0,6027.0,0,1,2,choice,After,Category,1,-1,2.0,6,6,1,1
406,481,wcc4ec90,Scene,1.0,5581.0,1,2,2,choice,After,Category,3,1,3.0,6,6,3,3
407,482,wcc4ec90,Food,0.0,3929.0,1,3,2,choice,After,Category,2,-1,-2.0,6,6,2,2
408,483,wcc4ec90,Object,1.0,4219.0,0,1,3,choice,Before,Category,3,-2,0.0,3,3,2,2
409,484,wcc4ec90,Animal,0.0,4869.0,1,2,3,choice,Before,Category,2,-1,0.0,3,3,0,0
410,485,wcc4ec90,Scene,0.0,3172.0,0,3,3,choice,Before,Category,1,2,2.0,3,3,1,3
411,486,wcc4ec90,Red,0.0,4427.0,0,1,4,choice,After,Color,1,1,2.0,6,6,1,1
412,487,wcc4ec90,Blue,1.0,2433.0,1,2,4,choice,After,Color,3,1,2.0,6,6,3,3
413,488,wcc4ec90,Yellow,0.0,2833.0,1,3,4,choice,After,Color,2,-3,-2.0,6,6,2,2
414,489,wcc4ec90,Green,1.0,894.0,1,1,5,choice,Before,Color,3,2,2.0,4,4,2,2
415,490,wcc4ec90,Yellow,1.0,492.0,1,2,5,choice,Before,Color,1,2,2.0,4,4,1,2
416,491,wcc4ec90,Blue,0.0,1319.0,1,3,5,choice,Before,Color,2,-4,0.0,4,4,1,2
417,492,wcc4ec90,Scene,1.0,4223.0,1,1,6,choice,After,Category,1,1,1.0,6,6,1,1
418,493,wcc4ec90,Food,0.0,6422.0,1,2,6,choice,After,Category,3,-1,-1.0,6,6,3,3
419,494,wcc4ec90,Animal,0.0,4290.0,0,3,6,choice,After,Category,2,1,1.0,6,6,2,2
420,495,wcc4ec90,Green,0.0,2903.0,1,1,7,choice,Before,Color,2,-3,-3.0,6,6,2,2
421,496,wcc4ec90,Yellow,1.0,738.0,1,2,7,choice,Before,Color,3,2,2.0,6,6,3,3
422,497,wcc4ec90,Red,1.0,1420.0,1,3,7,choice,Before,Color,1,1,1.0,6,6,1,1
423,498,wcc4ec90,Animal,0.0,1726.0,1,1,8,choice,After,Category,3,-2,-4.0,5,5,2,2
424,499,wcc4ec90,Object,1.0,1056.0,1,2,8,choice,After,Category,2,1,3.0,5,5,2,2
425,500,wcc4ec90,Food,1.0,785.0,1,3,8,choice,After,Category,1,1,2.0,5,5,1,2
426,501,w8de3f64,Blue,0.0,3611.0,1,1,1,choice,After,Color,3,-1,-1.0,6,6,3,3
427,502,w8de3f64,Yellow,1.0,5401.0,1,2,1,choice,After,Color,2,1,1.0,6,6,2,2
428,503,w8de3f64,Red,1.0,5806.0,1,3,1,choice,After,Color,1,1,1.0,6,6,1,1
429,504,w8de3f64,Object,1.0,6372.0,1,1,2,choice,Before,Category,1,1,2.0,5,5,1,1
430,505,w8de3f64,Scene,0.0,2637.0,0,2,2,choice,Before,Category,2,1,1.0,5,5,2,2
431,506,w8de3f64,Food,1.0,4587.0,0,3,2,choice,Before,Category,3,-1,-1.0,5,5,2,2
432,507,w8de3f64,Food,0.0,3816.0,1,1,3,choice,After,Category,1,-1,-1.0,4,4,0,1
433,508,w8de3f64,Animal,1.0,859.0,0,2,3,choice,After,Category,3,-1,2.0,4,4,2,2
434,509,w8de3f64,Object,1.0,925.0,1,3,3,choice,After,Category,2,3,2.0,4,4,2,2
435,510,w8de3f64,Blue,1.0,2058.0,1,1,4,choice,Before,Color,1,1,1.0,6,6,1,1
436,511,w8de3f64,Red,0.0,1555.0,1,2,4,choice,Before,Color,3,-1,-2.0,6,6,3,3
437,512,w8de3f64,Green,1.0,741.0,1,3,4,choice,Before,Color,2,1,1.0,6,6,2,2
438,513,w8de3f64,Red,0.0,2866.0,1,1,5,choice,After,Color,2,-3,-3.0,5,5,2,2
439,514,w8de3f64,Yellow,1.0,2814.0,1,2,5,choice,After,Color,1,1,1.0,5,5,1,1
440,515,w8de3f64,Green,,,0,3,5,choice,After,Color,3,1,1.0,5,5,2,2
441,516,w8de3f64,Animal,0.0,1739.0,1,1,6,choice,Before,Category,2,-1,0.0,2,2,1,1
442,517,w8de3f64,Scene,1.0,2974.0,1,2,6,choice,Before,Category,1,2,2.0,2,2,1,2
443,518,w8de3f64,Food,1.0,2267.0,0,3,6,choice,Before,Category,3,-1,-3.0,2,2,0,0
444,519,w8de3f64,Green,1.0,1876.0,1,1,7,choice,After,Color,3,5,6.0,4,4,2,2
445,520,w8de3f64,Yellow,0.0,1819.0,1,2,7,choice,After,Color,1,-2,-2.0,4,4,0,0
446,521,w8de3f64,Blue,0.0,733.0,1,3,7,choice,After,Color,2,-4,-4.0,4,4,2,2
447,522,w8de3f64,Object,0.0,5042.0,1,1,8,choice,Before,Category,1,-1,1.0,2,2,0,0
448,523,w8de3f64,Food,0.0,746.0,0,2,8,choice,Before,Category,3,1,-2.0,2,2,2,2
449,524,w8de3f64,Animal,1.0,452.0,0,3,8,choice,Before,Category,2,-1,-1.0,2,2,0,0
450,525,we83fa8f,Object,0.0,2230.0,0,1,1,choice,Before,Category,3,1,-2.0,4,4,2,2
451,526,we83fa8f,Animal,0.0,1783.0,1,2,1,choice,Before,Category,2,-3,-1.0,4,4,1,2
452,527,we83fa8f,Food,1.0,1222.0,1,3,1,choice,Before,Category,1,1,1.0,4,4,1,1
453,528,we83fa8f,Object,0.0,5176.0,0,1,2,choice,After,Category,1,1,1.0,5,5,0,0
454,529,we83fa8f,Scene,1.0,5849.0,0,2,2,choice,After,Category,3,-1,1.0,5,5,3,3
455,530,we83fa8f,Food,0.0,5761.0,1,3,2,choice,After,Category,2,-1,-1.0,5,5,2,2
456,531,we83fa8f,Animal,0.0,2051.0,1,1,3,choice,Before,Category,1,-1,1.0,3,3,0,1
457,532,we83fa8f,Food,0.0,4998.0,0,2,3,choice,Before,Category,3,2,2.0,3,3,2,2
458,533,we83fa8f,Scene,1.0,2469.0,1,3,3,choice,Before,Category,2,1,1.0,3,3,1,1
459,534,we83fa8f,Blue,0.0,3438.0,1,1,4,choice,After,Color,2,-2,-2.0,1,1,0,1
460,535,we83fa8f,Red,1.0,4222.0,1,2,4,choice,After,Color,1,2,1.0,1,1,1,2
461,536,we83fa8f,Yellow,0.0,3497.0,0,3,4,choice,After,Color,3,1,2.0,1,1,0,0
462,537,we83fa8f,Blue,0.0,2071.0,1,1,5,choice,Before,Color,2,-4,-4.0,2,2,0,1
463,538,we83fa8f,Yellow,1.0,1661.0,1,2,5,choice,Before,Color,1,2,2.0,2,2,0,2
464,539,we83fa8f,Green,1.0,1873.0,1,3,5,choice,Before,Color,3,1,1.0,2,2,2,3
465,540,we83fa8f,Food,0.0,3347.0,1,1,6,choice,After,Category,2,-2,-3.0,4,4,2,2
466,541,we83fa8f,Object,1.0,5587.0,1,2,6,choice,After,Category,1,2,-1.0,4,4,0,1
467,542,we83fa8f,Scene,1.0,2065.0,1,3,6,choice,After,Category,3,1,2.0,4,4,2,2
468,543,we83fa8f,Green,0.0,1731.0,1,1,7,choice,Before,Color,3,-2,4.0,5,5,3,3
469,544,we83fa8f,Red,0.0,1289.0,1,2,7,choice,Before,Color,1,-2,-2.0,5,5,1,1
470,545,we83fa8f,Blue,1.0,1437.0,1,3,7,choice,Before,Color,2,4,4.0,5,5,1,2
471,546,we83fa8f,Red,,,0,1,8,choice,After,Color,3,1,1.0,4,4,1,1
472,547,we83fa8f,Yellow,1.0,2703.0,1,2,8,choice,After,Color,2,1,4.0,4,4,1,1
473,548,we83fa8f,Green,0.0,3254.0,1,3,8,choice,After,Color,1,-2,-2.0,4,4,1,3
474,549,w5092120,Blue,0.0,3091.0,1,1,1,choice,Before,Color,2,-1,-2.0,5,5,1,2
475,550,w5092120,Yellow,1.0,4123.0,1,2,1,choice,Before,Color,3,1,0.0,5,5,3,3
476,551,w5092120,Green,1.0,2885.0,0,3,1,choice,Before,Color,1,-2,-2.0,5,5,1,1
477,552,w5092120,Blue,,,0,1,2,choice,After,Color,2,3,-1.0,4,4,1,1
478,553,w5092120,Green,0.0,3007.0,1,2,2,choice,After,Color,3,-5,-3.0,4,4,2,2
479,554,w5092120,Red,1.0,702.0,1,3,2,choice,After,Color,1,1,0.0,4,4,1,1
480,555,w5092120,Green,0.0,2163.0,1,1,4,choice,After,Color,1,-1,-1.0,4,4,1,1
481,556,w5092120,Red,1.0,716.0,1,2,4,choice,After,Color,3,2,3.0,4,4,2,2
482,557,w5092120,Yellow,1.0,637.0,1,3,4,choice,After,Color,2,1,3.0,4,4,1,2
483,558,w5092120,Object,,,0,1,8,choice,After,Category,3,1,1.0,3,3,2,2
484,559,w5092120,Food,1.0,1893.0,1,2,8,choice,After,Category,1,2,-1.0,3,3,1,2
485,560,w5092120,Animal,0.0,3239.0,1,3,8,choice,After,Category,2,-3,0.0,3,3,0,1
486,561,w0a25e9c,Food,1.0,4590.0,0,1,1,choice,Before,Category,1,-2,-2.0,5,5,1,2
487,562,w0a25e9c,Animal,1.0,7232.0,0,2,1,choice,Before,Category,3,-2,-2.0,5,5,2,2
488,563,w0a25e9c,Scene,1.0,1048.0,1,3,1,choice,Before,Category,2,4,4.0,5,5,2,2
489,564,w0a25e9c,Blue,1.0,4560.0,0,1,2,choice,After,Color,2,-2,1.0,3,3,1,1
490,565,w0a25e9c,Red,0.0,3496.0,1,2,2,choice,After,Color,1,-1,-1.0,3,3,0,0
491,566,w0a25e9c,Green,1.0,4530.0,1,3,2,choice,After,Color,3,4,5.0,3,3,2,2
492,567,w0a25e9c,Red,1.0,1673.0,1,1,3,choice,Before,Color,3,3,6.0,3,3,2,3
493,568,w0a25e9c,Yellow,0.0,4686.0,0,2,3,choice,Before,Color,2,1,-2.0,3,3,1,1
494,569,w0a25e9c,Blue,1.0,2392.0,0,3,3,choice,Before,Color,1,-1,-1.0,3,3,0,2
495,570,w0a25e9c,Animal,0.0,3418.0,0,1,4,choice,After,Category,1,1,2.0,4,4,1,1
496,571,w0a25e9c,Object,1.0,2825.0,1,2,4,choice,After,Category,2,3,3.0,4,4,1,1
497,572,w0a25e9c,Food,1.0,3567.0,0,3,4,choice,After,Category,3,-4,0.0,4,4,2,2
498,573,w0a25e9c,Green,1.0,4790.0,0,1,5,choice,Before,Color,3,-3,1.0,4,4,2,2
499,574,w0a25e9c,Red,1.0,2348.0,1,2,5,choice,Before,Color,2,1,4.0,4,4,2,2
500,575,w0a25e9c,Blue,0.0,2817.0,0,3,5,choice,Before,Color,1,2,-1.0,4,4,0,0
501,576,w0a25e9c,Scene,1.0,2082.0,1,1,6,choice,After,Category,2,3,4.0,6,6,2,2
502,577,w0a25e9c,Animal,1.0,3475.0,1,2,6,choice,After,Category,1,2,1.0,6,6,1,1
503,578,w0a25e9c,Food,0.0,1935.0,1,3,6,choice,After,Category,3,-5,-5.0,6,6,3,3
504,579,w0a25e9c,Yellow,1.0,2550.0,1,1,7,choice,Before,Color,2,3,4.0,4,4,2,2
505,580,w0a25e9c,Blue,0.0,2916.0,1,2,7,choice,Before,Color,3,-2,-2.0,4,4,2,2
506,581,w0a25e9c,Green,0.0,1214.0,1,3,7,choice,Before,Color,1,-1,-1.0,4,4,0,1
507,582,w0a25e9c,Object,0.0,3736.0,1,1,8,choice,After,Category,3,-2,2.0,4,4,2,2
508,583,w0a25e9c,Food,1.0,2802.0,1,2,8,choice,After,Category,1,1,1.0,4,4,1,1
509,584,w0a25e9c,Animal,1.0,1014.0,0,3,8,choice,After,Category,2,-1,1.0,4,4,1,1
510,585,wbb74717,Animal,0.0,5490.0,1,1,1,choice,Before,Category,3,-1,-1.0,5,5,2,2
511,586,wbb74717,Scene,1.0,4779.0,1,2,1,choice,Before,Category,2,2,2.0,5,5,2,2
512,587,wbb74717,Food,0.0,3240.0,1,3,1,choice,Before,Category,1,-1,-1.0,5,5,1,1
513,588,wbb74717,Red,0.0,4100.0,1,1,2,choice,After,Color,1,-2,-1.0,5,5,1,1
514,589,wbb74717,Green,1.0,4093.0,1,2,2,choice,After,Color,3,2,2.0,5,5,3,3
515,590,wbb74717,Blue,0.0,3957.0,0,3,2,choice,After,Color,2,1,0.0,5,5,1,1
516,591,wbb74717,Yellow,1.0,1074.0,1,1,3,choice,Before,Color,2,4,3.0,5,5,2,2
517,592,wbb74717,Blue,0.0,1688.0,1,2,3,choice,Before,Color,1,-1,-1.0,5,5,1,2
518,593,wbb74717,Red,1.0,426.0,0,3,3,choice,Before,Color,3,-1,0.0,5,5,2,2
519,594,wbb74717,Green,1.0,3600.0,0,1,4,choice,After,Color,1,-1,-1.0,5,5,1,1
520,595,wbb74717,Red,1.0,4942.0,1,2,4,choice,After,Color,3,1,-1.0,5,5,3,3
521,596,wbb74717,Yellow,1.0,1707.0,1,3,4,choice,After,Color,2,1,3.0,5,5,1,1
522,597,wbb74717,Scene,0.0,1814.0,1,1,5,choice,Before,Category,2,-2,-2.0,3,3,2,2
523,598,wbb74717,Object,1.0,1300.0,1,2,5,choice,Before,Category,1,2,1.0,3,3,0,1
524,599,wbb74717,Animal,1.0,2540.0,1,3,5,choice,Before,Category,3,2,-1.0,3,3,1,1
525,600,wbb74717,Food,1.0,1890.0,1,1,6,choice,After,Category,3,1,1.0,2,2,1,1
526,601,wbb74717,Scene,1.0,1950.0,0,2,6,choice,After,Category,2,-1,0.0,2,2,1,1
527,602,wbb74717,Animal,1.0,1427.0,0,3,6,choice,After,Category,1,-2,2.0,2,2,0,1
528,603,wbb74717,Scene,0.0,2355.0,0,1,7,choice,Before,Category,2,4,0.0,2,2,2,2
529,604,wbb74717,Food,1.0,5637.0,0,2,7,choice,Before,Category,1,-1,1.0,2,2,0,1
530,605,wbb74717,Object,1.0,1535.0,0,3,7,choice,Before,Category,3,-3,3.0,2,2,0,0
531,606,wbb74717,Blue,1.0,2072.0,1,1,8,choice,After,Color,3,2,1.0,2,2,1,2
532,607,wbb74717,Red,0.0,614.0,0,2,8,choice,After,Color,1,1,-1.0,2,2,1,2
533,608,wbb74717,Yellow,1.0,1477.0,0,3,8,choice,After,Color,2,-2,-2.0,2,2,0,2
534,609,w0c031fe,Yellow,1.0,2100.0,1,1,1,choice,After,Color,1,2,2.0,3,3,1,1
535,610,w0c031fe,Blue,0.0,2449.0,0,2,1,choice,After,Color,3,1,1.0,3,3,2,2
536,611,w0c031fe,Green,1.0,1985.0,0,3,1,choice,After,Color,2,-2,-2.0,3,3,0,0
537,612,w0c031fe,Object,1.0,2543.0,1,1,2,choice,Before,Category,2,4,0.0,3,3,1,1
538,613,w0c031fe,Food,0.0,1476.0,1,2,2,choice,Before,Category,1,-2,-2.0,3,3,1,1
539,614,w0c031fe,Scene,1.0,889.0,0,3,2,choice,Before,Category,3,-1,1.0,3,3,1,1
540,615,w0c031fe,Yellow,1.0,2608.0,0,1,3,choice,After,Color,3,-1,2.0,4,4,2,2
541,616,w0c031fe,Red,1.0,3167.0,1,2,3,choice,After,Color,2,1,1.0,4,4,2,2
542,617,w0c031fe,Green,0.0,674.0,0,3,3,choice,After,Color,1,2,-2.0,4,4,0,0
543,618,w0c031fe,Blue,1.0,2289.0,1,1,4,choice,Before,Color,2,1,-3.0,3,3,1,1
544,619,w0c031fe,Red,0.0,2966.0,1,2,4,choice,Before,Color,1,-2,-2.0,3,3,0,1
545,620,w0c031fe,Yellow,1.0,3705.0,1,3,4,choice,Before,Color,3,2,4.0,3,3,2,2
546,621,w0c031fe,Scene,0.0,3204.0,1,1,5,choice,After,Category,1,-1,-1.0,3,3,1,2
547,622,w0c031fe,Food,1.0,871.0,1,2,5,choice,After,Category,3,2,1.0,3,3,2,2
548,623,w0c031fe,Animal,1.0,3388.0,1,3,5,choice,After,Category,2,1,0.0,3,3,0,1
549,624,w0c031fe,Object,0.0,3104.0,1,1,6,choice,Before,Category,1,-2,-1.0,3,3,1,1
550,625,w0c031fe,Scene,0.0,748.0,1,2,6,choice,Before,Category,2,-1,-2.0,3,3,1,2
551,626,w0c031fe,Food,1.0,421.0,1,3,6,choice,Before,Category,3,1,1.0,3,3,1,2
552,627,w0c031fe,Yellow,1.0,2995.0,0,1,7,choice,After,Color,2,-3,1.0,4,4,2,2
553,628,w0c031fe,Red,0.0,1434.0,0,2,7,choice,After,Color,3,4,-1.0,4,4,2,2
554,629,w0c031fe,Blue,0.0,1904.0,1,3,7,choice,After,Color,1,-1,-1.0,4,4,0,0
555,630,w0c031fe,Object,1.0,1497.0,1,1,8,choice,Before,Category,3,2,0.0,4,4,2,2
556,631,w0c031fe,Food,1.0,806.0,0,2,8,choice,Before,Category,1,-2,-1.0,4,4,1,1
557,632,w0c031fe,Animal,0.0,374.0,0,3,8,choice,Before,Category,2,1,-4.0,4,4,1,1
558,633,w4ccf510,Object,0.0,7024.0,1,1,1,choice,Before,Category,2,-1,-4.0,4,4,2,2
559,634,w4ccf510,Scene,0.0,5579.0,1,2,1,choice,Before,Category,1,-2,-1.0,4,4,1,1
560,635,w4ccf510,Food,1.0,1123.0,1,3,1,choice,Before,Category,3,1,3.0,4,4,1,2
561,636,w4ccf510,Yellow,0.0,3172.0,0,1,2,choice,After,Color,3,2,-2.0,6,6,3,3
562,637,w4ccf510,Blue,0.0,6381.0,0,2,2,choice,After,Color,1,1,1.0,6,6,1,1
563,638,w4ccf510,Green,1.0,2777.0,0,3,2,choice,After,Color,2,-2,1.0,6,6,2,2
564,639,w4ccf510,Red,0.0,3763.0,1,1,3,choice,Before,Color,3,-2,-2.0,3,3,1,1
565,640,w4ccf510,Green,1.0,5616.0,1,2,3,choice,Before,Color,2,2,0.0,3,3,1,1
566,641,w4ccf510,Yellow,0.0,557.0,1,3,3,choice,Before,Color,1,-2,2.0,3,3,1,2
567,642,w4ccf510,Red,0.0,5110.0,0,1,4,choice,After,Color,1,1,-2.0,3,3,0,1
568,643,w4ccf510,Blue,1.0,5289.0,0,2,4,choice,After,Color,3,-2,-5.0,3,3,2,2
569,644,w4ccf510,Yellow,1.0,3796.0,1,3,4,choice,After,Color,2,1,0.0,3,3,1,2
570,645,w4ccf510,Blue,0.0,1471.0,1,1,5,choice,Before,Color,2,-3,-4.0,3,3,1,2
571,646,w4ccf510,Yellow,0.0,1655.0,1,2,5,choice,Before,Color,1,-1,-2.0,3,3,0,1
572,647,w4ccf510,Green,1.0,1534.0,1,3,5,choice,Before,Color,3,6,3.0,3,3,2,2
573,648,w4ccf510,Scene,0.0,5754.0,0,1,6,choice,After,Category,1,1,2.0,5,5,1,1
574,649,w4ccf510,Food,0.0,5050.0,1,2,6,choice,After,Category,3,-2,-4.0,5,5,3,3
575,650,w4ccf510,Animal,0.0,465.0,0,3,6,choice,After,Category,2,1,0.0,5,5,1,2
576,651,w4ccf510,Food,0.0,4153.0,0,1,7,choice,Before,Category,2,1,0.0,5,5,1,1
577,652,w4ccf510,Object,1.0,2159.0,1,2,7,choice,Before,Category,1,1,-1.0,5,5,1,1
578,653,w4ccf510,Scene,0.0,1199.0,1,3,7,choice,Before,Category,3,-1,-2.0,5,5,3,3
579,654,w4ccf510,Animal,1.0,4858.0,0,1,8,choice,After,Category,3,-3,-2.0,3,3,1,2
580,655,w4ccf510,Object,1.0,3463.0,1,2,8,choice,After,Category,2,3,-3.0,3,3,1,1
581,656,w4ccf510,Food,0.0,2349.0,1,3,8,choice,After,Category,1,-1,1.0,3,3,1,2
582,657,wb5c4def,Scene,1.0,2732.0,1,1,1,choice,After,Category,2,4,3.0,1,1,1,2
583,658,wb5c4def,Food,0.0,2883.0,1,2,1,choice,After,Category,1,-2,-2.0,1,1,0,1
584,659,wb5c4def,Animal,0.0,1378.0,1,3,1,choice,After,Category,3,-1,-1.0,1,1,0,1
585,660,wb5c4def,Red,1.0,1752.0,1,1,2,choice,Before,Color,1,2,2.0,6,6,1,1
586,661,wb5c4def,Blue,0.0,3048.0,1,2,2,choice,Before,Color,2,-4,-4.0,6,6,2,2
587,662,wb5c4def,Green,1.0,1709.0,1,3,2,choice,Before,Color,3,1,1.0,6,6,3,3
588,663,wb5c4def,Blue,0.0,1916.0,0,1,3,choice,After,Color,1,2,2.0,6,6,1,1
589,664,wb5c4def,Red,0.0,2686.0,1,2,3,choice,After,Color,3,-1,-1.0,6,6,3,3
590,665,wb5c4def,Yellow,0.0,3487.0,0,3,3,choice,After,Color,2,1,1.0,6,6,2,2
591,666,wb5c4def,Animal,1.0,4766.0,1,1,4,choice,Before,Category,1,1,-2.0,5,5,1,2
592,667,wb5c4def,Object,0.0,6062.0,0,2,4,choice,Before,Category,2,3,2.0,5,5,2,2
593,668,wb5c4def,Food,1.0,5641.0,0,3,4,choice,Before,Category,3,-5,-5.0,5,5,2,2
594,669,wb5c4def,Green,1.0,2431.0,1,1,5,choice,After,Color,3,1,2.0,4,4,2,3
595,670,wb5c4def,Blue,1.0,6620.0,0,2,5,choice,After,Color,1,-2,-2.0,4,4,0,0
596,671,wb5c4def,Red,0.0,4596.0,1,3,5,choice,After,Color,2,-1,1.0,4,4,2,3
597,672,wb5c4def,Red,0.0,2885.0,1,1,6,choice,Before,Color,2,-1,-4.0,4,4,1,2
598,673,wb5c4def,Green,1.0,667.0,1,2,6,choice,Before,Color,3,2,5.0,4,4,2,2
599,674,wb5c4def,Yellow,0.0,1222.0,1,3,6,choice,Before,Color,1,-1,-2.0,4,4,1,1
600,675,wb5c4def,Object,,,0,1,7,choice,After,Category,3,-1,-3.0,5,5,3,3
601,676,wb5c4def,Food,1.0,2760.0,0,2,7,choice,After,Category,1,-2,-2.0,5,5,1,1
602,677,wb5c4def,Scene,1.0,2487.0,1,3,7,choice,After,Category,2,2,4.0,5,5,1,2
603,678,wb5c4def,Animal,0.0,1284.0,1,1,8,choice,Before,Category,2,-3,-3.0,4,4,1,2
604,679,wb5c4def,Object,1.0,909.0,1,2,8,choice,Before,Category,3,5,5.0,4,4,2,2
605,680,wb5c4def,Food,0.0,1184.0,1,3,8,choice,Before,Category,1,-2,-2.0,4,4,1,2
606,705,wdad9375,Green,,,0,1,1,choice,After,Color,1,-2,-2.0,4,4,1,1
607,706,wdad9375,Blue,1.0,4726.0,1,2,1,choice,After,Color,2,3,3.0,4,4,1,2
608,707,wdad9375,Yellow,1.0,4363.0,0,3,1,choice,After,Color,3,-3,0.0,4,4,2,2
609,708,wdad9375,Blue,,,0,1,2,choice,Before,Color,2,-4,-3.0,6,6,2,2
610,709,wdad9375,Red,1.0,39.0,1,2,2,choice,Before,Color,1,2,2.0,6,6,1,1
611,710,wdad9375,Green,1.0,3983.0,1,3,2,choice,Before,Color,3,1,1.0,6,6,3,3
612,711,wdad9375,Animal,1.0,5809.0,1,1,3,choice,After,Category,2,4,-1.0,3,3,1,2
613,712,wdad9375,Scene,0.0,2400.0,1,2,3,choice,After,Category,3,-3,-2.0,3,3,2,2
614,713,wdad9375,Object,1.0,2208.0,1,3,3,choice,After,Category,1,2,-1.0,3,3,0,1
615,714,wdad9375,Object,0.0,3174.0,1,1,4,choice,Before,Category,2,-4,-4.0,5,5,2,2
616,715,wdad9375,Animal,1.0,1585.0,1,2,4,choice,Before,Category,1,2,1.0,5,5,1,2
617,716,wdad9375,Food,1.0,1726.0,1,3,4,choice,Before,Category,3,2,3.0,5,5,2,2
618,717,wdad9375,Scene,,,0,1,5,choice,After,Category,2,1,1.0,6,6,2,2
619,718,wdad9375,Object,1.0,341.0,1,2,5,choice,After,Category,1,2,-1.0,6,6,1,1
620,719,wdad9375,Animal,0.0,3629.0,1,3,5,choice,After,Category,3,-1,2.0,6,6,3,3
621,720,wdad9375,Green,,,0,1,6,choice,Before,Color,3,-1,-1.0,6,6,3,3
622,721,wdad9375,Yellow,1.0,5444.0,1,2,6,choice,Before,Color,1,1,1.0,6,6,1,1
623,722,wdad9375,Red,1.0,3967.0,1,3,6,choice,Before,Color,2,1,1.0,6,6,2,2
624,723,wdad9375,Object,1.0,4031.0,0,1,7,choice,After,Category,3,-1,0.0,5,5,2,2
625,724,wdad9375,Food,0.0,2046.0,0,2,7,choice,After,Category,1,2,2.0,5,5,1,2
626,725,wdad9375,Scene,1.0,937.0,1,3,7,choice,After,Category,2,1,1.0,5,5,2,2
627,726,wdad9375,Blue,1.0,6744.0,1,1,8,choice,Before,Color,3,3,1.0,3,3,2,2
628,727,wdad9375,Red,0.0,1494.0,0,2,8,choice,Before,Color,1,1,1.0,3,3,0,1
629,728,wdad9375,Yellow,,,0,3,8,choice,Before,Color,2,-2,-3.0,3,3,1,2
630,729,we55dec7,Blue,1.0,1990.0,1,1,1,choice,After,Color,2,1,3.0,3,3,1,1
631,730,we55dec7,Yellow,1.0,790.0,1,2,1,choice,After,Color,3,2,-6.0,3,3,1,1
632,731,we55dec7,Green,1.0,3580.0,0,3,1,choice,After,Color,1,-1,-1.0,3,3,1,1
633,732,we55dec7,Blue,1.0,864.0,0,1,2,choice,Before,Color,2,-1,2.0,3,3,1,1
634,733,we55dec7,Green,0.0,4114.0,0,2,2,choice,Before,Color,3,1,3.0,3,3,2,2
635,734,we55dec7,Red,0.0,1170.0,1,3,2,choice,Before,Color,1,-1,-1.0,3,3,0,0
636,735,we55dec7,Object,0.0,5011.0,1,1,3,choice,After,Category,1,-1,1.0,4,4,0,0
637,736,we55dec7,Scene,1.0,963.0,1,2,3,choice,After,Category,3,3,5.0,4,4,3,4
638,737,we55dec7,Animal,1.0,2640.0,1,3,3,choice,After,Category,2,1,-1.0,4,4,1,1
639,738,we55dec7,Food,1.0,2184.0,1,1,4,choice,Before,Category,3,3,3.0,4,4,3,3
640,739,we55dec7,Object,0.0,854.0,1,2,4,choice,Before,Category,2,-1,-2.0,4,4,1,1
641,740,we55dec7,Animal,0.0,2725.0,1,3,4,choice,Before,Category,1,-1,-2.0,4,4,0,0
642,741,we55dec7,Blue,0.0,3850.0,0,1,5,choice,After,Color,1,2,-1.0,2,2,0,0
643,742,we55dec7,Red,0.0,2922.0,0,2,5,choice,After,Color,2,1,0.0,2,2,2,3
644,743,we55dec7,Green,1.0,828.0,0,3,5,choice,After,Color,3,-1,2.0,2,2,0,0
645,744,we55dec7,Scene,0.0,4116.0,1,1,6,choice,Before,Category,2,-1,0.0,3,3,2,2
646,745,we55dec7,Animal,1.0,861.0,0,2,6,choice,Before,Category,1,-1,2.0,3,3,1,2
647,746,we55dec7,Food,1.0,626.0,1,3,6,choice,Before,Category,3,1,3.0,3,3,0,0
648,747,we55dec7,Scene,0.0,4822.0,0,1,7,choice,After,Category,2,1,0.0,1,1,0,1
649,748,we55dec7,Food,1.0,1162.0,0,2,7,choice,After,Category,1,-1,-1.0,1,1,0,2
650,749,we55dec7,Object,1.0,2212.0,1,3,7,choice,After,Category,3,1,-2.0,1,1,1,1
651,750,we55dec7,Red,1.0,4093.0,0,1,8,choice,Before,Color,1,-2,-1.0,2,2,0,1
652,751,we55dec7,Blue,0.0,1326.0,0,2,8,choice,Before,Color,3,1,2.0,2,2,2,2
653,752,we55dec7,Yellow,1.0,613.0,0,3,8,choice,Before,Color,2,-1,-3.0,2,2,0,1
654,753,w0198d08,Green,1.0,2926.0,1,1,1,choice,Before,Color,1,2,1.0,5,5,1,1
655,754,w0198d08,Yellow,1.0,2999.0,1,2,1,choice,Before,Color,3,1,5.0,5,5,2,2
656,755,w0198d08,Red,0.0,907.0,1,3,1,choice,Before,Color,2,-3,-2.0,5,5,2,3
657,756,w0198d08,Object,,,0,1,2,choice,After,Category,1,-1,-1.0,6,6,1,1
658,757,w0198d08,Scene,0.0,3405.0,1,2,2,choice,After,Category,3,-1,-1.0,6,6,3,3
659,758,w0198d08,Food,1.0,1223.0,1,3,2,choice,After,Category,2,3,3.0,6,6,2,2
660,759,w0198d08,Animal,0.0,3406.0,0,1,3,choice,Before,Category,1,2,-1.0,5,5,1,1
661,760,w0198d08,Scene,0.0,1253.0,0,2,3,choice,Before,Category,2,1,1.0,5,5,2,2
662,761,w0198d08,Food,1.0,583.0,0,3,3,choice,Before,Category,3,-1,0.0,5,5,2,3
663,762,w0198d08,Blue,1.0,2906.0,1,1,4,choice,After,Color,2,3,0.0,5,5,1,1
664,763,w0198d08,Red,0.0,2264.0,1,2,4,choice,After,Color,1,-2,-2.0,5,5,1,2
665,764,w0198d08,Yellow,1.0,1137.0,0,3,4,choice,After,Color,3,-2,-2.0,5,5,3,3
666,765,w0198d08,Blue,1.0,3498.0,1,1,5,choice,Before,Color,2,1,0.0,5,5,1,2
667,766,w0198d08,Yellow,1.0,3713.0,1,2,5,choice,Before,Color,1,1,1.0,5,5,1,1
668,767,w0198d08,Green,0.0,1412.0,1,3,5,choice,Before,Color,3,-2,-3.0,5,5,3,3
669,768,w0198d08,Scene,0.0,1858.0,1,1,6,choice,After,Category,3,-2,-3.0,5,5,3,3
670,769,w0198d08,Food,1.0,1762.0,1,2,6,choice,After,Category,2,1,1.0,5,5,2,2
671,770,w0198d08,Object,1.0,2490.0,1,3,6,choice,After,Category,1,1,1.0,5,5,0,0
672,771,w0198d08,Animal,1.0,2417.0,0,1,7,choice,Before,Category,2,-2,-3.0,2,2,1,1
673,772,w0198d08,Scene,0.0,2722.0,0,2,7,choice,Before,Category,1,1,1.0,2,2,0,3
674,773,w0198d08,Object,1.0,878.0,1,3,7,choice,Before,Category,3,2,2.0,2,2,1,1
675,774,w0198d08,Green,1.0,2645.0,0,1,8,choice,After,Color,1,-2,2.0,6,6,1,1
676,775,w0198d08,Yellow,1.0,3323.0,1,2,8,choice,After,Color,2,1,2.0,6,6,2,2
677,776,w0198d08,Red,0.0,458.0,0,3,8,choice,After,Color,3,2,-3.0,6,6,3,3
678,846,wf63b737,Blue,0.0,2446.0,0,1,1,choice,After,Color,3,6,-2.0,2,2,2,2
679,847,wf63b737,Yellow,1.0,533.0,0,2,1,choice,After,Color,2,-3,3.0,2,2,0,1
680,848,wf63b737,Red,1.0,2012.0,0,3,1,choice,After,Color,1,-2,-1.0,2,2,0,1
681,849,wf63b737,Green,1.0,1967.0,0,1,2,choice,Before,Color,2,-2,0.0,2,2,1,1
682,850,wf63b737,Red,1.0,643.0,0,2,2,choice,Before,Color,1,-2,1.0,2,2,1,2
683,851,wf63b737,Yellow,1.0,828.0,1,3,2,choice,Before,Color,3,5,-1.0,2,2,0,1
684,852,wf63b737,Animal,1.0,4488.0,0,1,3,choice,After,Category,3,-2,2.0,3,3,2,2
685,853,wf63b737,Food,0.0,1163.0,0,2,3,choice,After,Category,1,2,-2.0,3,3,0,0
686,854,wf63b737,Object,0.0,940.0,1,3,3,choice,After,Category,2,-1,0.0,3,3,1,2
687,855,wf63b737,Object,1.0,4065.0,1,1,4,choice,Before,Category,3,2,4.0,5,5,2,3
688,856,wf63b737,Scene,0.0,527.0,1,2,4,choice,Before,Category,1,-2,1.0,5,5,1,1
689,857,wf63b737,Animal,1.0,271.0,1,3,4,choice,Before,Category,2,1,-3.0,5,5,2,2
690,858,wf63b737,Animal,1.0,2151.0,1,1,5,choice,After,Category,1,2,1.0,5,5,1,1
691,859,wf63b737,Scene,1.0,821.0,1,2,5,choice,After,Category,2,1,1.0,5,5,1,1
692,860,wf63b737,Object,0.0,2060.0,1,3,5,choice,After,Category,3,-2,1.0,5,5,3,3
693,861,wf63b737,Blue,0.0,1868.0,1,1,6,choice,Before,Color,3,-1,-3.0,6,6,3,3
694,862,wf63b737,Green,0.0,1681.0,1,2,6,choice,Before,Color,1,-2,-1.0,6,6,1,1
695,863,wf63b737,Red,1.0,704.0,1,3,6,choice,Before,Color,2,4,2.0,6,6,2,2
696,864,wf63b737,Green,0.0,4490.0,1,1,7,choice,After,Color,3,-1,-1.0,6,6,3,3
697,865,wf63b737,Yellow,1.0,1916.0,1,2,7,choice,After,Color,1,1,2.0,6,6,1,1
698,866,wf63b737,Blue,0.0,4113.0,0,3,7,choice,After,Color,2,1,-4.0,6,6,2,2
699,867,wf63b737,Animal,1.0,3933.0,1,1,8,choice,Before,Category,2,3,3.0,5,5,2,2
700,868,wf63b737,Object,0.0,1418.0,1,2,8,choice,Before,Category,1,-2,-1.0,5,5,1,1
701,869,wf63b737,Food,0.0,657.0,1,3,8,choice,Before,Category,3,-1,-2.0,5,5,2,3
702,870,wf60f9d4,Food,0.0,3793.0,0,1,1,choice,Before,Category,1,2,-1.0,5,5,1,1
703,871,wf60f9d4,Animal,1.0,1465.0,0,2,1,choice,Before,Category,3,-4,-2.0,5,5,3,4
704,872,wf60f9d4,Scene,1.0,4524.0,1,3,1,choice,Before,Category,2,4,4.0,5,5,1,1
705,873,wf60f9d4,Object,1.0,7199.0,0,1,2,choice,After,Category,2,-2,-2.0,5,5,1,1
706,874,wf60f9d4,Food,1.0,2342.0,1,2,2,choice,After,Category,3,2,2.0,5,5,3,3
707,875,wf60f9d4,Scene,0.0,1380.0,0,3,2,choice,After,Category,1,1,1.0,5,5,1,2
708,876,wf60f9d4,Red,1.0,2885.0,0,1,3,choice,Before,Color,3,-2,-1.0,2,2,1,2
709,877,wf60f9d4,Yellow,0.0,1023.0,0,2,3,choice,Before,Color,2,1,1.0,2,2,0,0
710,878,wf60f9d4,Blue,1.0,3090.0,1,3,3,choice,Before,Color,1,2,2.0,2,2,1,1
711,879,wf60f9d4,Food,1.0,3551.0,0,1,4,choice,After,Category,3,-1,1.0,4,4,2,2
712,880,wf60f9d4,Animal,1.0,1611.0,1,2,4,choice,After,Category,1,1,1.0,4,4,0,0
713,881,wf60f9d4,Object,0.0,1600.0,0,3,4,choice,After,Category,2,1,1.0,4,4,2,2
714,882,wf60f9d4,Green,1.0,2549.0,0,1,5,choice,Before,Color,3,-3,-1.0,3,3,2,2
715,883,wf60f9d4,Red,0.0,3975.0,0,2,5,choice,Before,Color,2,4,3.0,3,3,1,1
716,884,wf60f9d4,Blue,0.0,7250.0,1,3,5,choice,Before,Color,1,-1,-1.0,3,3,0,0
717,885,wf60f9d4,Green,0.0,1872.0,1,1,6,choice,After,Color,3,-2,0.0,3,3,0,0
718,886,wf60f9d4,Yellow,,,0,2,6,choice,After,Color,1,-2,-2.0,3,3,1,1
719,887,wf60f9d4,Red,1.0,7213.0,1,3,6,choice,After,Color,2,4,0.0,3,3,2,2
720,888,wf60f9d4,Food,1.0,6913.0,1,1,7,choice,Before,Category,1,2,2.0,1,1,1,2
721,889,wf60f9d4,Scene,0.0,4136.0,1,2,7,choice,Before,Category,2,-1,0.0,1,1,0,0
722,890,wf60f9d4,Object,1.0,4143.0,0,3,7,choice,Before,Category,3,-2,-2.0,1,1,0,0
723,891,wf60f9d4,Blue,0.0,1403.0,0,1,8,choice,After,Color,3,1,4.0,1,1,1,2
724,892,wf60f9d4,Red,0.0,1201.0,0,2,8,choice,After,Color,1,1,-1.0,1,1,0,0
725,893,wf60f9d4,Yellow,0.0,3353.0,1,3,8,choice,After,Color,2,-3,-3.0,1,1,0,1
726,894,w27e1de9,Animal,,,0,1,1,choice,Before,Category,2,-1,-3.0,4,4,1,1
727,895,w27e1de9,Scene,1.0,4613.0,0,2,1,choice,Before,Category,3,-2,1.0,4,4,2,2
728,896,w27e1de9,Food,0.0,4452.0,0,3,1,choice,Before,Category,1,1,1.0,4,4,1,2
729,897,w27e1de9,Scene,1.0,3314.0,1,1,2,choice,After,Category,2,3,4.0,4,4,2,2
730,898,w27e1de9,Food,0.0,1963.0,1,2,2,choice,After,Category,3,-4,-4.0,4,4,2,2
731,899,w27e1de9,Object,1.0,4461.0,1,3,2,choice,After,Category,1,2,2.0,4,4,0,1
732,900,w27e1de9,Animal,1.0,7233.0,1,1,3,choice,Before,Category,3,3,4.0,5,5,2,2
733,901,w27e1de9,Food,0.0,2772.0,0,2,3,choice,Before,Category,1,1,-2.0,5,5,1,1
734,902,w27e1de9,Object,1.0,3149.0,0,3,3,choice,Before,Category,2,-3,-3.0,5,5,2,3
735,903,w27e1de9,Blue,0.0,5278.0,1,1,4,choice,After,Color,1,-1,-1.0,4,4,0,0
736,904,w27e1de9,Red,,,0,2,4,choice,After,Color,3,2,2.0,4,4,2,2
737,905,w27e1de9,Green,1.0,1392.0,1,3,4,choice,After,Color,2,1,0.0,4,4,2,3
738,906,w27e1de9,Red,0.0,1883.0,0,1,5,choice,Before,Color,2,3,1.0,6,6,2,2
739,907,w27e1de9,Yellow,1.0,931.0,0,2,5,choice,Before,Color,1,-2,-1.0,6,6,1,1
740,908,w27e1de9,Green,0.0,2448.0,1,3,5,choice,Before,Color,3,-1,4.0,6,6,3,3
741,909,w27e1de9,Animal,1.0,1712.0,1,1,8,choice,After,Category,2,4,1.0,1,1,1,1
742,910,w27e1de9,Food,0.0,2000.0,1,2,8,choice,After,Category,3,-3,4.0,1,1,0,0
743,911,w27e1de9,Object,1.0,964.0,0,3,8,choice,After,Category,1,-1,2.0,1,1,0,0
744,912,w313d7aa,Food,1.0,1946.0,0,1,1,choice,After,Category,1,-2,2.0,3,3,1,1
745,913,w313d7aa,Object,0.0,1749.0,0,2,1,choice,After,Category,3,1,-3.0,3,3,1,1
746,914,w313d7aa,Animal,1.0,1075.0,1,3,1,choice,After,Category,2,1,0.0,3,3,1,1
747,915,w313d7aa,Blue,0.0,685.0,0,1,2,choice,Before,Color,3,4,2.0,2,2,1,1
748,916,w313d7aa,Yellow,1.0,843.0,0,2,2,choice,Before,Color,2,-4,1.0,2,2,1,1
749,917,w313d7aa,Green,1.0,778.0,0,3,2,choice,Before,Color,1,-1,-1.0,2,2,0,1
750,918,w313d7aa,Food,1.0,3115.0,0,1,3,choice,After,Category,3,-2,-1.0,5,5,3,3
751,919,w313d7aa,Scene,1.0,2653.0,0,2,3,choice,After,Category,2,-1,-1.0,5,5,1,1
752,920,w313d7aa,Animal,1.0,976.0,1,3,3,choice,After,Category,1,2,2.0,5,5,1,1
753,921,wc55b6c8,Food,1.0,4624.0,0,1,1,choice,After,Category,1,-1,-1.0,4,4,1,1
754,922,wc55b6c8,Animal,0.0,3546.0,0,2,1,choice,After,Category,2,2,0.0,4,4,1,1
755,923,wc55b6c8,Scene,1.0,4446.0,0,3,1,choice,After,Category,3,-1,-1.0,4,4,2,2
756,924,wc55b6c8,Scene,0.0,5629.0,1,1,2,choice,Before,Category,2,-3,-1.0,3,3,1,2
757,925,wc55b6c8,Object,1.0,3154.0,1,2,2,choice,Before,Category,1,2,2.0,3,3,1,1
758,926,wc55b6c8,Food,1.0,1922.0,1,3,2,choice,Before,Category,3,1,5.0,3,3,1,1
759,927,wc55b6c8,Blue,0.0,5985.0,0,1,3,choice,After,Color,2,1,2.0,4,4,1,1
760,928,wc55b6c8,Yellow,1.0,1649.0,1,2,3,choice,After,Color,3,1,2.0,4,4,2,3
761,929,wc55b6c8,Green,0.0,2518.0,1,3,3,choice,After,Color,1,-1,-2.0,4,4,1,2
762,930,wc55b6c8,Green,0.0,1779.0,1,1,4,choice,Before,Color,2,-1,-4.0,3,3,1,1
763,931,wc55b6c8,Blue,0.0,911.0,1,2,4,choice,Before,Color,1,-2,-1.0,3,3,1,1
764,932,wc55b6c8,Red,1.0,843.0,1,3,4,choice,Before,Color,3,2,6.0,3,3,1,2
765,933,wc55b6c8,Green,1.0,6541.0,0,1,5,choice,After,Color,3,-1,-5.0,4,4,2,2
766,934,wc55b6c8,Yellow,1.0,5775.0,1,2,5,choice,After,Color,1,2,1.0,4,4,0,0
767,935,wc55b6c8,Red,0.0,2351.0,1,3,5,choice,After,Color,2,-1,2.0,4,4,2,2
768,936,wc55b6c8,Green,1.0,5458.0,0,1,6,choice,Before,Color,1,-2,-1.0,3,3,0,1
769,937,wc55b6c8,Red,0.0,5832.0,1,2,6,choice,Before,Color,2,-1,2.0,3,3,1,2
770,938,wc55b6c8,Blue,1.0,510.0,1,3,6,choice,Before,Color,3,1,1.0,3,3,2,2
771,939,wc55b6c8,Food,0.0,4298.0,1,1,7,choice,After,Category,1,-2,2.0,3,3,0,0
772,940,wc55b6c8,Object,0.0,4741.0,0,2,7,choice,After,Category,2,2,0.0,3,3,2,2
773,941,wc55b6c8,Scene,1.0,3143.0,0,3,7,choice,After,Category,3,-2,5.0,3,3,1,1
774,942,wc55b6c8,Object,,,0,1,8,choice,Before,Category,1,-1,-2.0,2,2,0,0
775,943,wc55b6c8,Food,1.0,2397.0,1,2,8,choice,Before,Category,3,1,2.0,2,2,1,1
776,944,wc55b6c8,Animal,1.0,2470.0,1,3,8,choice,Before,Category,2,1,3.0,2,2,1,1
777,945,w9173175,Animal,0.0,5335.0,0,1,1,choice,Before,Category,2,1,-1.0,1,1,0,1
778,946,w9173175,Object,1.0,7092.0,1,2,1,choice,Before,Category,3,2,-3.0,1,1,1,1
779,947,w9173175,Food,1.0,2770.0,0,3,1,choice,Before,Category,1,-2,-2.0,1,1,0,0
780,948,w9173175,Food,1.0,2431.0,1,1,2,choice,After,Category,2,2,0.0,3,3,2,2
781,949,w9173175,Scene,1.0,1018.0,0,2,2,choice,After,Category,3,-4,2.0,3,3,1,2
782,950,w9173175,Object,0.0,2807.0,0,3,2,choice,After,Category,1,2,-1.0,3,3,0,0
783,951,w9173175,Animal,1.0,1549.0,1,1,3,choice,Before,Category,1,2,2.0,3,3,1,1
784,952,w9173175,Food,0.0,1748.0,1,2,3,choice,Before,Category,3,-2,-4.0,3,3,1,1
785,953,w9173175,Scene,0.0,2540.0,1,3,3,choice,Before,Category,2,-1,1.0,3,3,1,2
786,954,w9173175,Blue,1.0,7146.0,0,1,4,choice,After,Color,2,-3,0.0,2,2,0,0
787,955,w9173175,Red,0.0,2024.0,0,2,4,choice,After,Color,1,1,1.0,2,2,0,0
788,956,w9173175,Yellow,0.0,870.0,0,3,4,choice,After,Color,3,2,3.0,2,2,2,2
789,957,w9173175,Blue,0.0,1482.0,1,1,5,choice,Before,Color,2,-2,-2.0,3,3,1,1
790,958,w9173175,Yellow,0.0,851.0,1,2,5,choice,Before,Color,1,-2,-1.0,3,3,0,0
791,959,w9173175,Green,1.0,776.0,1,3,5,choice,Before,Color,3,6,6.0,3,3,2,2
792,960,w9173175,Food,0.0,5023.0,0,1,6,choice,After,Category,2,2,2.0,3,3,1,1
793,961,w9173175,Object,0.0,4573.0,1,2,6,choice,After,Category,1,-1,-2.0,3,3,1,1
794,962,w9173175,Scene,1.0,1033.0,0,3,6,choice,After,Category,3,-2,1.0,3,3,1,1
795,963,w9173175,Green,0.0,1111.0,1,1,7,choice,Before,Color,3,-1,5.0,2,2,1,1
796,964,w9173175,Blue,1.0,768.0,1,2,7,choice,Before,Color,2,3,-2.0,2,2,0,0
797,965,w9173175,Red,0.0,1176.0,1,3,7,choice,Before,Color,1,-1,-1.0,2,2,1,1
798,966,w9173175,Red,1.0,3648.0,1,1,8,choice,After,Color,3,1,4.0,3,3,2,2
799,967,w9173175,Yellow,0.0,3501.0,0,2,8,choice,After,Color,2,1,-1.0,3,3,1,1
800,968,w9173175,Green,0.0,2710.0,1,3,8,choice,After,Color,1,-1,-1.0,3,3,0,1
801,969,w397496b,Food,1.0,6014.0,1,1,1,choice,After,Category,1,1,1.0,1,1,0,1
802,970,w397496b,Object,0.0,2191.0,1,2,1,choice,After,Category,3,-6,4.0,1,1,1,1
803,971,w397496b,Animal,1.0,5993.0,1,3,1,choice,After,Category,2,3,-1.0,1,1,0,1
804,972,w397496b,Yellow,,,0,1,2,choice,Before,Color,2,3,3.0,5,5,2,2
805,973,w397496b,Green,0.0,3294.0,1,2,2,choice,Before,Color,1,-2,-1.0,5,5,0,1
806,974,w397496b,Blue,0.0,4305.0,1,3,2,choice,Before,Color,3,-3,-3.0,5,5,3,3
807,975,w397496b,Green,1.0,4201.0,0,1,3,choice,After,Color,3,-2,-2.0,5,5,3,3
808,976,w397496b,Red,0.0,5188.0,1,2,3,choice,After,Color,2,-1,2.0,5,5,1,1
809,977,w397496b,Blue,1.0,5707.0,1,3,3,choice,After,Color,1,2,2.0,5,5,1,1
810,978,w397496b,Blue,0.0,2509.0,1,1,4,choice,Before,Color,2,-4,-4.0,4,4,1,2
811,979,w397496b,Red,0.0,3570.0,1,2,4,choice,Before,Color,1,-1,1.0,4,4,1,1
812,980,w397496b,Yellow,1.0,1910.0,1,3,4,choice,Before,Color,3,5,5.0,4,4,2,3
813,981,w397496b,Food,1.0,3449.0,1,1,5,choice,After,Category,1,1,1.0,6,6,1,1
814,982,w397496b,Object,0.0,4753.0,0,2,5,choice,After,Category,3,3,-1.0,6,6,3,3
815,983,w397496b,Animal,0.0,4329.0,1,3,5,choice,After,Category,2,-2,-2.0,6,6,2,2
816,984,w397496b,Scene,0.0,2931.0,1,1,6,choice,Before,Category,3,-3,-3.0,4,4,2,2
817,985,w397496b,Object,1.0,4603.0,1,2,6,choice,Before,Category,1,1,1.0,4,4,0,0
818,986,w397496b,Food,1.0,4152.0,1,3,6,choice,Before,Category,2,1,2.0,4,4,2,2
819,987,w397496b,Animal,1.0,3333.0,1,1,7,choice,After,Category,2,1,3.0,4,4,1,1
820,988,w397496b,Scene,1.0,3365.0,1,2,7,choice,After,Category,1,2,2.0,4,4,1,1
821,989,w397496b,Object,0.0,3455.0,1,3,7,choice,After,Category,3,-1,-1.0,4,4,2,2
822,990,w397496b,Yellow,0.0,2802.0,1,1,8,choice,Before,Color,2,-3,-3.0,6,6,2,2
823,991,w397496b,Green,1.0,2111.0,1,2,8,choice,Before,Color,1,2,1.0,6,6,1,1
824,992,w397496b,Red,1.0,886.0,1,3,8,choice,Before,Color,3,3,3.0,6,6,3,3
825,1020,w7dbf1a9,Red,1.0,2100.0,0,1,1,choice,Before,Color,1,-1,1.0,2,2,0,1
826,1021,w7dbf1a9,Blue,0.0,1917.0,0,2,1,choice,Before,Color,3,1,2.0,2,2,2,2
827,1022,w7dbf1a9,Green,1.0,1753.0,0,3,1,choice,Before,Color,2,-1,1.0,2,2,0,1
828,1023,w7dbf1a9,Scene,1.0,3358.0,1,1,2,choice,After,Category,3,1,3.0,3,3,2,2
829,1024,w7dbf1a9,Animal,0.0,2013.0,1,2,2,choice,After,Category,1,-2,1.0,3,3,0,0
830,1025,w7dbf1a9,Food,1.0,1986.0,1,3,2,choice,After,Category,2,1,-2.0,3,3,1,1
831,1026,w7dbf1a9,Animal,0.0,3887.0,1,1,3,choice,Before,Category,2,-2,1.0,1,1,0,0
832,1027,w7dbf1a9,Scene,0.0,2932.0,0,2,3,choice,Before,Category,1,1,-1.0,1,1,0,1
833,1028,w7dbf1a9,Object,1.0,688.0,1,3,3,choice,Before,Category,3,1,2.0,1,1,1,1
834,1029,w7dbf1a9,Object,1.0,3825.0,0,1,4,choice,After,Category,3,-1,2.0,2,2,2,2
835,1030,w7dbf1a9,Food,1.0,2815.0,1,2,4,choice,After,Category,1,1,0.0,2,2,0,2
836,1031,w7dbf1a9,Animal,0.0,1095.0,0,3,4,choice,After,Category,2,1,1.0,2,2,0,1
837,1032,w7dbf1a9,Yellow,1.0,2098.0,1,1,5,choice,Before,Color,1,1,-1.0,1,1,0,2
838,1033,w7dbf1a9,Blue,0.0,1166.0,1,2,5,choice,Before,Color,2,-3,1.0,1,1,0,0
839,1034,w7dbf1a9,Green,0.0,2084.0,0,3,5,choice,Before,Color,3,2,-1.0,1,1,1,2
840,1035,w7dbf1a9,Yellow,1.0,1706.0,0,1,6,choice,After,Color,2,-3,4.0,2,2,1,1
841,1036,w7dbf1a9,Red,0.0,2798.0,0,2,6,choice,After,Color,3,2,0.0,2,2,1,1
842,1037,w7dbf1a9,Blue,0.0,3932.0,0,3,6,choice,After,Color,1,2,-2.0,2,2,0,0
843,1038,w7dbf1a9,Red,0.0,2494.0,1,1,7,choice,Before,Color,1,-1,-2.0,2,2,0,1
844,1039,w7dbf1a9,Yellow,1.0,1380.0,1,2,7,choice,Before,Color,3,4,1.0,2,2,1,1
845,1040,w7dbf1a9,Green,0.0,5602.0,1,3,7,choice,Before,Color,2,-2,-1.0,2,2,1,1
846,1041,w7dbf1a9,Food,0.0,6383.0,0,1,8,choice,After,Category,1,2,2.0,3,3,0,0
847,1042,w7dbf1a9,Animal,1.0,1297.0,0,2,8,choice,After,Category,3,-2,-3.0,3,3,1,1
848,1043,w7dbf1a9,Object,0.0,2582.0,0,3,8,choice,After,Category,2,1,-1.0,3,3,2,2
849,1044,w227f955,Yellow,1.0,3402.0,0,1,1,choice,After,Color,1,-1,0.0,3,3,0,1
850,1045,w227f955,Blue,1.0,3933.0,0,2,1,choice,After,Color,3,-1,-1.0,3,3,2,2
851,1046,w227f955,Green,1.0,4545.0,1,3,1,choice,After,Color,2,4,4.0,3,3,1,2
852,1047,w227f955,Green,1.0,1671.0,1,1,2,choice,Before,Color,1,2,1.0,2,2,1,1
853,1048,w227f955,Red,0.0,2365.0,1,2,2,choice,Before,Color,3,-4,-3.0,2,2,1,1
854,1049,w227f955,Blue,1.0,864.0,1,3,2,choice,Before,Color,2,4,3.0,2,2,0,0
855,1050,w227f955,Food,1.0,2566.0,0,1,3,choice,After,Category,3,-1,3.0,4,4,2,2
856,1051,w227f955,Animal,0.0,4469.0,0,2,3,choice,After,Category,2,1,1.0,4,4,1,1
857,1052,w227f955,Scene,0.0,3244.0,0,3,3,choice,After,Category,1,1,-1.0,4,4,1,1
858,1053,w227f955,Blue,1.0,2280.0,1,1,4,choice,Before,Color,2,1,2.0,1,1,0,0
859,1054,w227f955,Red,0.0,1146.0,1,2,4,choice,Before,Color,1,-2,-1.0,1,1,0,1
860,1055,w227f955,Yellow,1.0,549.0,1,3,4,choice,Before,Color,3,1,1.0,1,1,1,1
861,1056,w227f955,Food,1.0,3231.0,0,1,8,choice,Before,Category,1,-1,-1.0,4,4,1,2
862,1057,w227f955,Object,0.0,1005.0,1,2,8,choice,Before,Category,3,-2,0.0,4,4,2,2
863,1058,w227f955,Animal,1.0,1577.0,1,3,8,choice,Before,Category,2,4,3.0,4,4,1,2
864,1059,w6eb92cc,Red,0.0,2056.0,1,1,2,choice,After,Color,3,-3,-1.0,2,2,2,2
865,1060,w6eb92cc,Green,0.0,1563.0,0,2,2,choice,After,Color,1,1,1.0,2,2,0,1
866,1061,w6eb92cc,Blue,1.0,743.0,0,3,2,choice,After,Color,2,-1,0.0,2,2,0,1
867,1062,w6eb92cc,Object,1.0,2652.0,0,1,4,choice,After,Category,1,-1,-1.0,4,4,1,1
868,1063,w6eb92cc,Scene,1.0,1944.0,0,2,4,choice,After,Category,2,-3,-3.0,4,4,1,2
869,1064,w6eb92cc,Animal,1.0,3652.0,1,3,4,choice,After,Category,3,5,1.0,4,4,2,2
870,1065,w6eb92cc,Food,0.0,1819.0,0,1,5,choice,Before,Category,3,5,0.0,1,1,0,1
871,1066,w6eb92cc,Animal,1.0,1163.0,0,2,5,choice,Before,Category,2,-3,1.0,1,1,1,1
872,1067,w6eb92cc,Scene,1.0,1074.0,0,3,5,choice,Before,Category,1,-2,1.0,1,1,0,1
873,1068,w6eb92cc,Object,,,0,1,6,choice,After,Category,1,-1,2.0,4,4,1,1
874,1069,w6eb92cc,Scene,1.0,3722.0,1,2,6,choice,After,Category,2,4,3.0,4,4,2,2
875,1070,w6eb92cc,Food,1.0,812.0,0,3,6,choice,After,Category,3,-2,-1.0,4,4,1,1
876,1071,w6eb92cc,Yellow,0.0,1698.0,1,1,7,choice,Before,Color,2,-1,0.0,1,1,1,1
877,1072,w6eb92cc,Blue,1.0,1337.0,1,2,7,choice,Before,Color,1,2,-2.0,1,1,0,0
878,1073,w6eb92cc,Red,0.0,920.0,1,3,7,choice,Before,Color,3,-2,-2.0,1,1,0,1
879,1074,wc512962,Food,,,0,1,1,choice,Before,Category,1,1,1.0,5,5,1,1
880,1075,wc512962,Animal,0.0,3590.0,1,2,1,choice,Before,Category,2,-3,-3.0,5,5,1,2
881,1076,wc512962,Object,1.0,2884.0,1,3,1,choice,Before,Category,3,2,2.0,5,5,3,3
882,1077,wc512962,Object,1.0,4421.0,0,1,2,choice,After,Category,1,-1,-1.0,5,5,1,1
883,1078,wc512962,Food,1.0,1541.0,1,2,2,choice,After,Category,2,2,2.0,5,5,2,2
884,1079,wc512962,Scene,0.0,1455.0,1,3,2,choice,After,Category,3,-2,-2.0,5,5,2,2
885,1080,wc512962,Red,0.0,1850.0,1,1,3,choice,Before,Color,2,-1,-1.0,6,6,2,2
886,1081,wc512962,Blue,0.0,3325.0,1,2,3,choice,Before,Color,1,-2,-2.0,6,6,1,1
887,1082,wc512962,Green,1.0,718.0,1,3,3,choice,Before,Color,3,2,2.0,6,6,3,3
888,1083,wc512962,Yellow,0.0,1727.0,1,1,4,choice,After,Color,3,-1,-4.0,5,5,3,3
889,1084,wc512962,Blue,1.0,1465.0,1,2,4,choice,After,Color,2,3,3.0,5,5,1,2
890,1085,wc512962,Red,0.0,642.0,1,3,4,choice,After,Color,1,-1,-1.0,5,5,1,1
891,1086,wc512962,Yellow,0.0,1825.0,0,1,5,choice,Before,Color,1,1,-1.0,6,6,1,1
892,1087,wc512962,Green,0.0,1662.0,1,2,5,choice,Before,Color,3,-1,-1.0,6,6,3,3
893,1088,wc512962,Blue,0.0,896.0,0,3,5,choice,Before,Color,2,1,1.0,6,6,2,2
894,1089,wc512962,Blue,0.0,2511.0,1,1,6,choice,After,Color,2,-1,-1.0,6,6,2,2
895,1090,wc512962,Yellow,,,0,2,6,choice,After,Color,1,2,-2.0,6,6,1,1
896,1091,wc512962,Red,0.0,2449.0,1,3,6,choice,After,Color,3,-1,0.0,6,6,3,3
897,1092,wc512962,Scene,1.0,1513.0,1,1,7,choice,Before,Category,1,1,1.0,6,6,1,1
898,1093,wc512962,Animal,1.0,1679.0,0,2,7,choice,Before,Category,2,-1,-1.0,6,6,2,2
899,1094,wc512962,Object,0.0,604.0,1,3,7,choice,Before,Category,3,-2,-2.0,6,6,3,3
900,1095,wc512962,Animal,0.0,3146.0,1,1,8,choice,After,Category,2,-3,-3.0,6,6,2,2
901,1096,wc512962,Scene,1.0,1653.0,1,2,8,choice,After,Category,1,2,2.0,6,6,1,1
902,1097,wc512962,Food,1.0,3075.0,1,3,8,choice,After,Category,3,2,2.0,6,6,3,3
903,1098,we9754da,Blue,0.0,3120.0,1,1,1,choice,Before,Color,2,-2,0.0,4,4,2,2
904,1099,we9754da,Green,1.0,1416.0,1,2,1,choice,Before,Color,1,1,0.0,4,4,1,1
905,1100,we9754da,Yellow,1.0,7457.0,1,3,1,choice,Before,Color,3,1,1.0,4,4,1,1
906,1101,we9754da,Object,1.0,7406.0,1,1,2,choice,After,Category,2,1,1.0,6,6,2,2
907,1102,we9754da,Food,1.0,2693.0,1,2,2,choice,After,Category,3,2,2.0,6,6,3,3
908,1103,we9754da,Scene,0.0,3727.0,1,3,2,choice,After,Category,1,-1,-1.0,6,6,1,1
909,1104,we9754da,Red,,,0,1,3,choice,Before,Color,3,2,3.0,5,5,2,2
910,1105,we9754da,Yellow,0.0,2427.0,1,2,3,choice,Before,Color,2,-3,-1.0,5,5,2,2
911,1106,we9754da,Blue,1.0,1262.0,1,3,3,choice,Before,Color,1,1,1.0,5,5,1,1
912,1107,we9754da,Food,0.0,5139.0,0,1,4,choice,After,Category,3,1,0.0,2,2,1,1
913,1108,we9754da,Object,1.0,1326.0,1,2,4,choice,After,Category,2,1,2.0,2,2,0,0
914,1109,we9754da,Animal,0.0,7399.0,1,3,4,choice,After,Category,1,-2,-1.0,2,2,1,1
915,1110,we9754da,Animal,0.0,2618.0,1,1,5,choice,Before,Category,3,-2,-1.0,5,5,3,3
916,1111,we9754da,Scene,1.0,1774.0,0,2,5,choice,Before,Category,2,-1,0.0,5,5,2,2
917,1112,we9754da,Object,0.0,385.0,0,3,5,choice,Before,Category,1,1,-1.0,5,5,0,0
918,1113,we9754da,Yellow,1.0,3570.0,0,1,6,choice,After,Color,1,-2,-1.0,4,4,1,1
919,1114,we9754da,Red,1.0,2925.0,1,2,6,choice,After,Color,2,1,0.0,4,4,1,2
920,1115,we9754da,Green,0.0,2187.0,0,3,6,choice,After,Color,3,2,5.0,4,4,2,2
921,1116,we9754da,Scene,1.0,3947.0,1,1,7,choice,Before,Category,2,3,2.0,4,4,1,2
922,1117,we9754da,Object,0.0,1202.0,1,2,7,choice,Before,Category,3,-6,-6.0,4,4,2,2
923,1118,we9754da,Food,1.0,643.0,1,3,7,choice,Before,Category,1,2,2.0,4,4,1,1
924,1119,we9754da,Yellow,1.0,2869.0,1,1,8,choice,After,Color,2,1,0.0,3,3,1,1
925,1120,we9754da,Red,0.0,1662.0,0,2,8,choice,After,Color,1,2,-2.0,3,3,0,1
926,1121,we9754da,Blue,1.0,2349.0,0,3,8,choice,After,Color,3,-2,3.0,3,3,2,2
927,1122,w601970c,Scene,1.0,2211.0,0,1,5,choice,After,Category,1,-1,0.0,1,1,0,0
928,1123,w601970c,Food,1.0,1405.0,0,2,5,choice,After,Category,3,-2,0.0,1,1,0,0
929,1124,w601970c,Animal,0.0,1524.0,0,3,5,choice,After,Category,2,4,0.0,1,1,1,1
930,1125,w601970c,Yellow,1.0,3314.0,0,1,7,choice,After,Color,2,-1,0.0,1,1,0,0
931,1126,w601970c,Blue,0.0,1925.0,0,2,7,choice,After,Color,1,2,0.0,1,1,0,0
932,1127,w601970c,Red,1.0,2058.0,0,3,7,choice,After,Color,3,-1,0.0,1,1,1,1
933,1128,w3f5fa74,Yellow,1.0,2457.0,1,1,1,choice,Before,Color,1,2,-1.0,2,2,1,1
934,1129,w3f5fa74,Blue,0.0,2286.0,1,2,1,choice,Before,Color,3,-1,6.0,2,2,1,1
935,1130,w3f5fa74,Green,,,0,3,1,choice,Before,Color,2,-1,1.0,2,2,0,1
936,1131,w3f5fa74,Scene,1.0,5001.0,0,1,2,choice,After,Category,3,-3,0.0,1,1,1,1
937,1132,w3f5fa74,Object,1.0,6061.0,1,2,2,choice,After,Category,2,3,4.0,1,1,0,1
938,1133,w3f5fa74,Food,1.0,951.0,1,3,2,choice,After,Category,1,1,-1.0,1,1,0,1
939,1134,w3f5fa74,Red,0.0,3104.0,0,1,3,choice,Before,Color,2,1,-2.0,1,1,0,0
940,1135,w3f5fa74,Yellow,0.0,2332.0,0,2,3,choice,Before,Color,3,2,3.0,1,1,1,1
941,1136,w3f5fa74,Green,1.0,1706.0,0,3,3,choice,Before,Color,1,-1,2.0,1,1,0,1
942,1137,w3f5fa74,Object,0.0,3913.0,0,1,4,choice,After,Category,1,2,2.0,3,3,0,0
943,1138,w3f5fa74,Animal,1.0,756.0,0,2,4,choice,After,Category,3,-4,2.0,3,3,2,2
944,1139,w3f5fa74,Scene,0.0,1156.0,0,3,4,choice,After,Category,2,3,0.0,3,3,1,1
945,1140,w3f5fa74,Animal,1.0,859.0,0,1,5,choice,Before,Category,2,-2,4.0,2,2,1,2
946,1141,w3f5fa74,Food,1.0,1702.0,1,2,5,choice,Before,Category,3,1,-1.0,2,2,1,1
947,1142,w3f5fa74,Scene,1.0,3515.0,1,3,5,choice,Before,Category,1,2,2.0,2,2,0,0
948,1143,w3f5fa74,Green,1.0,5580.0,0,1,6,choice,After,Color,3,-1,1.0,1,1,0,1
949,1144,w3f5fa74,Yellow,0.0,1802.0,0,2,6,choice,After,Color,1,2,1.0,1,1,0,0
950,1145,w3f5fa74,Red,1.0,1284.0,0,3,6,choice,After,Color,2,-1,-1.0,1,1,1,1
951,1146,w3f5fa74,Animal,0.0,2862.0,1,1,7,choice,Before,Category,1,-2,-1.0,2,2,0,1
952,1147,w3f5fa74,Object,1.0,1833.0,0,2,7,choice,Before,Category,2,-3,2.0,2,2,1,1
953,1148,w3f5fa74,Scene,1.0,1466.0,1,3,7,choice,Before,Category,3,5,6.0,2,2,1,2
954,1149,w3f5fa74,Green,1.0,4070.0,0,1,8,choice,After,Color,2,-3,1.0,2,2,1,1
955,1150,w3f5fa74,Blue,1.0,2850.0,1,2,8,choice,After,Color,3,2,3.0,2,2,1,1
956,1151,w3f5fa74,Red,0.0,2419.0,0,3,8,choice,After,Color,1,1,-1.0,2,2,0,1
957,1152,w19d0170,Object,1.0,2928.0,0,1,1,choice,After,Category,3,-2,-3.0,2,2,1,1
958,1153,w19d0170,Animal,1.0,1729.0,1,2,1,choice,After,Category,2,3,1.0,2,2,1,1
959,1154,w19d0170,Food,0.0,2245.0,1,3,1,choice,After,Category,1,-2,2.0,2,2,0,0
960,1155,w19d0170,Yellow,1.0,1960.0,1,1,6,choice,Before,Color,1,2,2.0,6,6,1,1
961,1156,w19d0170,Green,1.0,3173.0,1,2,6,choice,Before,Color,3,2,3.0,6,6,3,3
962,1157,w19d0170,Red,0.0,3513.0,1,3,6,choice,Before,Color,2,-2,-2.0,6,6,2,2
963,1158,w19d0170,Animal,1.0,2275.0,1,1,7,choice,After,Category,1,1,1.0,5,5,1,1
964,1159,w19d0170,Scene,0.0,3982.0,1,2,7,choice,After,Category,3,-1,-1.0,5,5,3,3
965,1160,w19d0170,Object,1.0,3539.0,1,3,7,choice,After,Category,2,1,1.0,5,5,1,1
966,1161,w19d0170,Red,0.0,2005.0,1,1,8,choice,Before,Color,1,-2,-2.0,4,4,1,1
967,1162,w19d0170,Blue,0.0,2964.0,1,2,8,choice,Before,Color,3,-1,-2.0,4,4,2,2
968,1163,w19d0170,Green,1.0,1291.0,1,3,8,choice,Before,Color,2,4,3.0,4,4,1,1
969,1164,w4b6424d,Yellow,0.0,5324.0,0,1,1,choice,Before,Color,3,4,-2.0,5,5,2,2
970,1165,w4b6424d,Green,0.0,3363.0,1,2,1,choice,Before,Color,1,-2,2.0,5,5,1,2
971,1166,w4b6424d,Blue,1.0,994.0,0,3,1,choice,Before,Color,2,-4,0.0,5,5,2,2
972,1167,w4b6424d,Blue,1.0,3151.0,1,1,2,choice,After,Color,2,1,-2.0,2,2,0,2
973,1168,w4b6424d,Red,,,0,2,2,choice,After,Color,1,-1,2.0,2,2,1,2
974,1169,w4b6424d,Green,0.0,2585.0,0,3,2,choice,After,Color,3,1,4.0,2,2,1,2
975,1170,w4b6424d,Object,0.0,5354.0,0,1,3,choice,Before,Category,1,2,-1.0,4,4,0,0
976,1171,w4b6424d,Animal,1.0,2443.0,1,2,3,choice,Before,Category,2,1,0.0,4,4,2,3
977,1172,w4b6424d,Scene,1.0,4590.0,0,3,3,choice,Before,Category,3,-1,2.0,4,4,2,3
978,1173,w4b6424d,Food,1.0,4576.0,0,1,4,choice,After,Category,3,-1,4.0,3,3,0,0
979,1174,w4b6424d,Animal,1.0,1552.0,0,2,4,choice,After,Category,1,-1,2.0,3,3,1,3
980,1175,w4b6424d,Object,1.0,2501.0,1,3,4,choice,After,Category,2,2,0.0,3,3,2,2
981,1176,w4b6424d,Blue,1.0,3973.0,0,1,5,choice,Before,Color,1,-2,-2.0,5,5,1,2
982,1177,w4b6424d,Green,1.0,691.0,1,2,5,choice,Before,Color,3,4,3.0,5,5,2,2
983,1178,w4b6424d,Red,0.0,1146.0,1,3,5,choice,Before,Color,2,-4,0.0,5,5,2,2
984,1179,w4b6424d,Animal,0.0,2999.0,1,1,6,choice,After,Category,1,-2,1.0,3,3,1,3
985,1180,w4b6424d,Food,0.0,3941.0,1,2,6,choice,After,Category,3,-2,-1.0,3,3,0,0
986,1181,w4b6424d,Scene,1.0,1335.0,1,3,6,choice,After,Category,2,3,4.0,3,3,2,3
987,1182,w4b6424d,Scene,0.0,2083.0,1,1,7,choice,Before,Category,2,-4,-4.0,2,2,1,3
988,1183,w4b6424d,Object,1.0,4009.0,1,2,7,choice,Before,Category,3,2,2.0,2,2,1,1
989,1184,w4b6424d,Food,1.0,2686.0,1,3,7,choice,Before,Category,1,2,2.0,2,2,0,2
990,1185,w4b6424d,Red,0.0,3751.0,0,1,8,choice,After,Color,1,1,1.0,4,4,0,0
991,1186,w4b6424d,Blue,0.0,2127.0,1,2,8,choice,After,Color,3,-1,6.0,4,4,2,3
992,1187,w4b6424d,Yellow,1.0,2944.0,1,3,8,choice,After,Color,2,1,-3.0,4,4,2,3
993,1188,wc4c38a3,Food,1.0,3083.0,0,1,1,choice,After,Category,1,-2,2.0,4,4,1,1
994,1189,wc4c38a3,Object,0.0,3154.0,1,2,1,choice,After,Category,3,-2,2.0,4,4,2,2
995,1190,wc4c38a3,Animal,1.0,859.0,1,3,1,choice,After,Category,2,4,4.0,4,4,1,2
996,1191,wc4c38a3,Yellow,0.0,1642.0,1,1,2,choice,Before,Color,2,-3,-3.0,4,4,1,1
997,1192,wc4c38a3,Blue,1.0,1140.0,1,2,2,choice,Before,Color,3,3,3.0,4,4,2,2
998,1193,wc4c38a3,Green,0.0,840.0,1,3,2,choice,Before,Color,1,-2,-2.0,4,4,1,1
999,1194,wc4c38a3,Yellow,1.0,2095.0,1,1,5,choice,After,Color,1,2,1.0,3,3,0,0
1000,1195,wc4c38a3,Blue,0.0,2017.0,1,2,5,choice,After,Color,2,-4,-3.0,3,3,2,3
1001,1196,wc4c38a3,Green,1.0,4868.0,1,3,5,choice,After,Color,3,1,1.0,3,3,1,1
1002,1197,wc4c38a3,Yellow,1.0,2052.0,1,1,6,choice,Before,Color,1,1,-1.0,3,3,1,1
1003,1198,wc4c38a3,Red,0.0,1361.0,1,2,6,choice,Before,Color,3,-1,3.0,3,3,1,2
1004,1199,wc4c38a3,Blue,1.0,1814.0,0,3,6,choice,Before,Color,2,-1,1.0,3,3,1,1
1005,1200,wc4c38a3,Scene,1.0,1721.0,1,1,7,choice,After,Category,1,2,-2.0,1,1,0,1
1006,1201,wc4c38a3,Object,0.0,2220.0,0,2,7,choice,After,Category,3,2,1.0,1,1,1,1
1007,1202,wc4c38a3,Animal,1.0,3249.0,0,3,7,choice,After,Category,2,-3,-2.0,1,1,0,1
1008,1203,wc4c38a3,Yellow,1.0,2160.0,1,1,8,choice,Before,Color,2,1,4.0,3,3,1,1
1009,1204,wc4c38a3,Green,1.0,1798.0,1,2,8,choice,Before,Color,1,1,1.0,3,3,0,1
1010,1205,wc4c38a3,Red,0.0,929.0,1,3,8,choice,Before,Color,3,-2,-5.0,3,3,2,2
1011,1206,w504748f,Blue,,,0,1,1,choice,After,Color,3,2,-2.0,2,2,1,1
1012,1207,w504748f,Yellow,1.0,1480.0,0,2,1,choice,After,Color,1,-2,2.0,2,2,0,0
1013,1208,w504748f,Green,1.0,4820.0,0,3,1,choice,After,Color,2,-1,0.0,2,2,1,1
1014,1209,w504748f,Green,0.0,2602.0,1,1,2,choice,Before,Color,1,-2,-1.0,2,2,0,0
1015,1210,w504748f,Red,1.0,1282.0,1,2,2,choice,Before,Color,3,3,3.0,2,2,1,1
1016,1211,w504748f,Blue,1.0,5210.0,0,3,2,choice,Before,Color,2,-4,4.0,2,2,1,1
1017,1212,w504748f,Scene,0.0,2539.0,0,1,3,choice,After,Category,1,1,-2.0,1,1,0,0
1018,1213,w504748f,Food,1.0,2129.0,0,2,3,choice,After,Category,3,-4,-1.0,1,1,1,1
1019,1214,w504748f,Animal,1.0,3168.0,1,3,3,choice,After,Category,2,3,0.0,1,1,0,1
1020,1215,w504748f,Red,0.0,5923.0,1,1,4,choice,Before,Color,1,-1,1.0,3,3,1,1
1021,1216,w504748f,Yellow,1.0,6149.0,0,2,4,choice,Before,Color,3,-1,0.0,3,3,1,2
1022,1217,w504748f,Blue,1.0,3320.0,1,3,4,choice,Before,Color,2,3,3.0,3,3,1,1
1023,1218,w504748f,Animal,0.0,5079.0,0,1,5,choice,After,Category,2,3,3.0,3,3,1,1
1024,1219,w504748f,Scene,0.0,6424.0,0,2,5,choice,After,Category,1,2,-2.0,3,3,0,0
1025,1220,w504748f,Food,1.0,2540.0,0,3,5,choice,After,Category,3,-6,-2.0,3,3,2,2
1026,1221,w504748f,Food,1.0,7113.0,1,1,6,choice,Before,Category,3,2,4.0,4,4,1,1
1027,1222,w504748f,Scene,0.0,5284.0,1,2,6,choice,Before,Category,2,-3,-1.0,4,4,2,2
1028,1223,w504748f,Object,1.0,4640.0,1,3,6,choice,Before,Category,1,2,-2.0,4,4,1,1
1029,1224,w504748f,Animal,,,0,1,7,choice,After,Category,1,-1,-1.0,4,4,0,0
1030,1225,w504748f,Scene,0.0,0.0,1,2,7,choice,After,Category,3,-1,1.0,4,4,2,2
1031,1226,w504748f,Object,1.0,4464.0,1,3,7,choice,After,Category,2,4,0.0,4,4,2,2
1032,1227,w504748f,Green,0.0,4095.0,1,1,8,choice,Before,Color,2,-1,1.0,3,3,1,1
1033,1228,w504748f,Blue,,,0,2,8,choice,Before,Color,3,-2,-2.0,3,3,2,2
1034,1229,w504748f,Red,1.0,4658.0,1,3,8,choice,Before,Color,1,2,2.0,3,3,0,0
1035,1230,w14cb402,Green,1.0,2165.0,1,1,1,choice,Before,Color,1,2,1.0,4,4,1,1
1036,1231,w14cb402,Blue,1.0,3018.0,1,2,1,choice,Before,Color,2,1,1.0,4,4,1,2
1037,1232,w14cb402,Yellow,0.0,1102.0,1,3,1,choice,Before,Color,3,-1,-4.0,4,4,2,3
1038,1233,w14cb402,Blue,1.0,2363.0,0,1,2,choice,After,Color,2,-1,-3.0,2,2,1,2
1039,1234,w14cb402,Green,0.0,551.0,1,2,2,choice,After,Color,3,-2,-2.0,2,2,1,1
1040,1235,w14cb402,Red,0.0,557.0,0,3,2,choice,After,Color,1,1,2.0,2,2,0,0
1041,1236,w14cb402,Red,1.0,1518.0,1,1,3,choice,Before,Color,3,1,6.0,3,3,1,1
1042,1237,w14cb402,Yellow,0.0,579.0,1,2,3,choice,Before,Color,2,-3,1.0,3,3,1,1
1043,1238,w14cb402,Blue,1.0,618.0,1,3,3,choice,Before,Color,1,1,-2.0,3,3,1,1
1044,1239,w14cb402,Food,1.0,1035.0,1,1,4,choice,After,Category,3,1,-1.0,1,1,0,0
1045,1240,w14cb402,Object,0.0,575.0,1,2,4,choice,After,Category,2,-3,4.0,1,1,1,1
1046,1241,w14cb402,Animal,0.0,1024.0,0,3,4,choice,After,Category,1,2,-2.0,1,1,0,2
1047,1242,w14cb402,Red,1.0,2371.0,0,1,5,choice,Before,Color,2,-1,-4.0,4,4,1,1
1048,1243,w14cb402,Green,0.0,327.0,0,2,5,choice,Before,Color,3,1,-2.0,4,4,3,3
1049,1244,w14cb402,Blue,0.0,1286.0,1,3,5,choice,Before,Color,1,-1,-2.0,4,4,0,1
1050,1245,w14cb402,Scene,1.0,3231.0,1,1,6,choice,After,Category,2,4,4.0,5,5,1,1
1051,1246,w14cb402,Animal,0.0,991.0,0,2,6,choice,After,Category,1,1,2.0,5,5,1,1
1052,1247,w14cb402,Food,0.0,696.0,1,3,6,choice,After,Category,3,-4,-2.0,5,5,2,2
1053,1248,w14cb402,Object,1.0,1733.0,0,1,7,choice,Before,Category,3,-4,1.0,2,2,1,1
1054,1249,w14cb402,Food,0.0,1741.0,0,2,7,choice,Before,Category,1,1,-2.0,2,2,0,0
1055,1250,w14cb402,Scene,1.0,923.0,1,3,7,choice,Before,Category,2,4,4.0,2,2,1,2
1056,1251,w14cb402,Food,0.0,3654.0,1,1,8,choice,After,Category,1,-1,1.0,2,2,1,3
1057,1252,w14cb402,Object,1.0,610.0,1,2,8,choice,After,Category,3,1,6.0,2,2,1,1
1058,1253,w14cb402,Animal,1.0,503.0,0,3,8,choice,After,Category,2,-1,-3.0,2,2,0,0
1059,1254,w49d88d0,Object,0.0,7198.0,0,1,1,choice,Before,Category,3,2,1.0,5,5,2,2
1060,1255,w49d88d0,Animal,0.0,5519.0,0,2,1,choice,Before,Category,2,1,-1.0,5,5,2,3
1061,1256,w49d88d0,Food,1.0,1836.0,0,3,1,choice,Before,Category,1,-2,-1.0,5,5,1,1
1062,1257,w49d88d0,Object,1.0,2061.0,0,1,2,choice,After,Category,2,-1,-3.0,3,3,0,0
1063,1258,w49d88d0,Food,1.0,5498.0,1,2,2,choice,After,Category,1,2,1.0,3,3,1,1
1064,1259,w49d88d0,Scene,1.0,3270.0,0,3,2,choice,After,Category,3,-2,1.0,3,3,2,2
1065,1260,w49d88d0,Blue,0.0,3363.0,1,1,4,choice,After,Color,2,-1,1.0,3,3,1,1
1066,1261,w49d88d0,Yellow,1.0,988.0,1,2,4,choice,After,Color,3,2,-2.0,3,3,1,2
1067,1262,w49d88d0,Red,0.0,1592.0,1,3,4,choice,After,Color,1,-2,-2.0,3,3,1,1
1068,1263,w49d88d0,Blue,1.0,3222.0,0,1,5,choice,Before,Color,1,-1,2.0,4,4,1,1
1069,1264,w49d88d0,Yellow,1.0,627.0,0,2,5,choice,Before,Color,2,-3,2.0,4,4,1,2
1070,1265,w49d88d0,Green,0.0,3015.0,0,3,5,choice,Before,Color,3,4,3.0,4,4,2,2
1071,1266,w49d88d0,Scene,0.0,2234.0,1,1,6,choice,After,Category,2,-1,-2.0,1,1,0,0
1072,1267,w49d88d0,Food,0.0,3068.0,1,2,6,choice,After,Category,3,-3,2.0,1,1,1,1
1073,1268,w49d88d0,Object,1.0,1376.0,1,3,6,choice,After,Category,1,2,-1.0,1,1,0,1
1074,1269,w49d88d0,Red,1.0,944.0,1,1,7,choice,Before,Color,3,1,1.0,4,4,2,2
1075,1270,w49d88d0,Blue,0.0,497.0,1,2,7,choice,Before,Color,1,-2,-2.0,4,4,1,1
1076,1271,w49d88d0,Yellow,0.0,841.0,1,3,7,choice,Before,Color,2,-1,-3.0,4,4,1,3
1077,1272,w49d88d0,Animal,1.0,2238.0,1,1,8,choice,After,Category,2,1,-2.0,1,1,0,1
1078,1273,w49d88d0,Food,0.0,670.0,1,2,8,choice,After,Category,1,-2,-2.0,1,1,1,1
1079,1274,w49d88d0,Object,0.0,2628.0,0,3,8,choice,After,Category,3,3,-3.0,1,1,0,1
