,index,wid,option,choice,rt,correct,trial_number,game,phase,multi_time,multi_dim,n_true_memories,value,remembered_value,n_total_memories_shown,n_total_memories,n_remembered_shown,n_remembered,dim_shown,expected_dim
0,7,w593f4a8,Animal,1.0,4141.0,1,1,9,choice,After,Animal,3,1,1.0,5,5,2,2,None,False
1,8,w593f4a8,Object,0.0,5259.0,0,2,9,choice,After,Animal,1,2,2.0,5,5,1,2,None,False
2,9,w593f4a8,Yellow,1.0,4155.0,1,3,9,choice,After,Animal,3,1,2.0,5,5,3,3,None,False
3,10,w593f4a8,Red,1.0,3213.0,1,4,9,choice,After,Animal,1,1,1.0,5,5,1,2,None,False
4,11,w593f4a8,Blue,0.0,3043.0,1,5,9,choice,After,Animal,2,-3,-2.0,5,5,1,1,None,False
5,12,w593f4a8,Scene,0.0,1303.0,1,6,9,choice,After,Animal,2,-4,-2.0,5,5,2,2,None,False
6,21,w13e388b,Animal,0.0,1955.0,0,1,9,choice,After,Animal,1,1,-1.0,4,4,1,2,None,False
7,22,w13e388b,Food,1.0,3921.0,0,2,9,choice,After,Animal,2,-4,-3.0,4,4,1,2,None,False
8,23,w13e388b,Yellow,0.0,2451.0,0,3,9,choice,After,Animal,3,1,-2.0,4,4,2,2,None,False
9,24,w13e388b,Blue,1.0,2242.0,1,4,9,choice,After,Animal,1,1,1.0,4,4,1,1,None,False
10,25,w13e388b,Green,0.0,3319.0,1,5,9,choice,After,Animal,2,-4,1.0,4,4,1,2,None,False
11,26,w13e388b,Scene,1.0,738.0,1,6,9,choice,After,Animal,3,1,4.0,4,4,2,2,None,False
12,35,w479605b,Blue,0.0,3238.0,1,1,9,choice,After,Blue,1,-1,-1.0,3,3,0,1,None,False
13,36,w479605b,Object,1.0,2523.0,1,2,9,choice,After,Blue,1,1,2.0,3,3,0,0,None,False
14,37,w479605b,Scene,1.0,3294.0,1,3,9,choice,After,Blue,2,3,-2.0,3,3,2,2,None,False
15,38,w479605b,Green,1.0,3422.0,1,4,9,choice,After,Blue,3,1,1.0,3,3,1,1,None,False
16,39,w479605b,Red,0.0,1685.0,1,5,9,choice,After,Blue,2,-1,-1.0,3,3,2,2,None,False
17,40,w479605b,Animal,1.0,3377.0,0,6,9,choice,After,Blue,3,-5,-1.0,3,3,1,2,None,False
18,49,w383e1fe,Object,1.0,1223.0,1,1,9,choice,Before,Object,3,2,2.0,5,5,2,2,Object,True
19,50,w383e1fe,Green,0.0,3979.0,1,2,9,choice,Before,Object,2,-1,0.0,5,5,1,1,Object,False
20,51,w383e1fe,Red,0.0,1864.0,0,3,9,choice,Before,Object,3,2,-2.0,5,5,3,3,Object,False
21,52,w383e1fe,Yellow,0.0,1989.0,1,4,9,choice,Before,Object,1,-1,-1.0,5,5,1,2,Object,False
22,53,w383e1fe,Animal,0.0,709.0,1,5,9,choice,Before,Object,2,-4,-3.0,5,5,2,3,Object,False
23,54,w383e1fe,Scene,0.0,1009.0,0,6,9,choice,Before,Object,1,2,-2.0,5,5,1,1,Object,False
24,63,wc73f4d8,Food,0.0,1670.0,0,1,9,choice,Before,Food,2,1,3.0,4,4,2,3,Food,True
25,64,wc73f4d8,Scene,1.0,2804.0,1,2,9,choice,Before,Food,3,1,2.0,4,4,1,2,Food,False
26,65,wc73f4d8,Object,0.0,2844.0,1,3,9,choice,Before,Food,1,-1,-1.0,4,4,1,1,Food,False
27,66,wc73f4d8,Green,0.0,2991.0,0,4,9,choice,Before,Food,1,1,-1.0,4,4,0,0,Food,False
28,67,wc73f4d8,Yellow,1.0,1677.0,1,5,9,choice,Before,Food,2,4,4.0,4,4,1,1,Food,False
29,68,wc73f4d8,Blue,0.0,2653.0,1,6,9,choice,Before,Food,3,-4,1.0,4,4,3,3,Food,False
30,77,webf5097,Object,1.0,4692.0,0,1,9,choice,After,Object,2,-2,0.0,3,3,1,1,None,False
31,78,webf5097,Red,0.0,1794.0,0,2,9,choice,After,Object,1,1,-1.0,3,3,1,1,None,False
32,79,webf5097,Blue,1.0,1388.0,0,3,9,choice,After,Object,2,-2,1.0,3,3,1,1,None,False
33,80,webf5097,Food,0.0,1944.0,0,4,9,choice,After,Object,3,2,2.0,3,3,1,1,None,False
34,81,webf5097,Scene,0.0,1665.0,0,5,9,choice,After,Object,1,1,1.0,3,3,1,1,None,False
35,82,webf5097,Green,1.0,1546.0,1,6,9,choice,After,Object,3,2,3.0,3,3,1,1,None,False
36,88,w68730bb,Animal,1.0,2095.0,1,1,9,choice,After,Animal,1,2,2.0,2,2,0,1,None,False
37,89,w68730bb,Yellow,0.0,529.0,0,2,9,choice,After,Animal,3,2,-2.0,2,2,1,2,None,False
38,90,w68730bb,Blue,1.0,582.0,1,3,9,choice,After,Animal,1,1,2.0,2,2,1,2,None,False
39,91,w68730bb,Green,1.0,282.0,0,4,9,choice,After,Animal,2,-3,1.0,2,2,0,0,None,False
40,92,w68730bb,Scene,1.0,961.0,0,5,9,choice,After,Animal,3,-3,-1.0,2,2,2,2,None,False
41,93,w68730bb,Food,0.0,1000.0,0,6,9,choice,After,Animal,2,1,0.0,2,2,0,1,None,False
42,101,we9631be,Scene,,,0,1,9,choice,Before,Scene,3,1,-2.0,2,2,1,1,Scene,True
43,102,we9631be,Red,,,0,2,9,choice,Before,Scene,3,-3,5.0,2,2,0,0,Scene,False
44,103,we9631be,Animal,,,0,3,9,choice,Before,Scene,1,-2,2.0,2,2,0,1,Scene,False
45,104,we9631be,Yellow,,,0,4,9,choice,Before,Scene,2,3,-3.0,2,2,1,2,Scene,False
46,105,we9631be,Object,,,0,5,9,choice,Before,Scene,2,-1,1.0,2,2,1,1,Scene,False
47,106,we9631be,Blue,,,0,6,9,choice,Before,Scene,1,-2,-1.0,2,2,1,2,Scene,False
48,115,w245142a,Animal,1.0,4771.0,1,1,9,choice,After,Animal,1,2,2.0,6,6,1,1,None,False
49,116,w245142a,Scene,0.0,6154.0,1,2,9,choice,After,Animal,2,-3,-3.0,6,6,2,2,None,False
50,117,w245142a,Green,1.0,3914.0,1,3,9,choice,After,Animal,3,3,3.0,6,6,3,3,None,False
51,118,w245142a,Yellow,1.0,3147.0,1,4,9,choice,After,Animal,1,2,2.0,6,6,1,1,None,False
52,119,w245142a,Red,0.0,3388.0,1,5,9,choice,After,Animal,2,-3,-3.0,6,6,2,2,None,False
53,120,w245142a,Food,1.0,3723.0,1,6,9,choice,After,Animal,3,3,3.0,6,6,3,3,None,False
54,129,w4bf9dec,Green,1.0,2850.0,1,1,9,choice,Before,Green,2,4,4.0,5,5,2,2,Green,True
55,130,w4bf9dec,Animal,1.0,4210.0,1,2,9,choice,Before,Green,2,1,1.0,5,5,1,1,Green,False
56,131,w4bf9dec,Object,0.0,2204.0,1,3,9,choice,Before,Green,3,-1,-1.0,5,5,3,3,Green,False
57,132,w4bf9dec,Red,0.0,2754.0,1,4,9,choice,Before,Green,1,-1,-1.0,5,5,1,2,Green,False
58,133,w4bf9dec,Blue,0.0,1627.0,1,5,9,choice,Before,Green,3,-2,-4.0,5,5,2,2,Green,False
59,134,w4bf9dec,Food,1.0,4353.0,1,6,9,choice,Before,Green,1,1,-1.0,5,5,1,2,Green,False
60,143,w277fccf,Scene,0.0,4640.0,0,1,9,choice,After,Scene,3,2,-2.0,6,6,3,3,None,False
61,144,w277fccf,Animal,0.0,3694.0,1,2,9,choice,After,Scene,2,-1,-1.0,6,6,2,2,None,False
62,145,w277fccf,Blue,0.0,4582.0,0,3,9,choice,After,Scene,2,3,-1.0,6,6,2,2,None,False
63,146,w277fccf,Yellow,1.0,2588.0,1,4,9,choice,After,Scene,1,2,2.0,6,6,1,1,None,False
64,147,w277fccf,Green,0.0,1345.0,1,5,9,choice,After,Scene,3,-5,-5.0,6,6,3,3,None,False
65,148,w277fccf,Object,0.0,4520.0,1,6,9,choice,After,Scene,1,-1,-1.0,6,6,1,1,None,False
66,157,w50c12e5,Scene,1.0,4090.0,1,1,9,choice,After,Scene,3,2,-1.0,3,3,1,1,None,False
67,158,w50c12e5,Green,0.0,1717.0,0,2,9,choice,After,Scene,3,2,-1.0,3,3,1,1,None,False
68,159,w50c12e5,Object,1.0,2134.0,1,3,9,choice,After,Scene,1,2,1.0,3,3,0,1,None,False
69,160,w50c12e5,Yellow,0.0,3103.0,1,4,9,choice,After,Scene,1,-1,2.0,3,3,1,1,None,False
70,161,w50c12e5,Blue,0.0,1205.0,1,5,9,choice,After,Scene,2,-1,-4.0,3,3,1,2,None,False
71,162,w50c12e5,Animal,1.0,2348.0,0,6,9,choice,After,Scene,2,-4,-3.0,3,3,2,3,None,False
72,185,w8d745f1,Green,1.0,2021.0,1,1,9,choice,After,Green,3,3,3.0,6,6,3,3,None,False
73,186,w8d745f1,Red,0.0,2552.0,1,2,9,choice,After,Green,2,-1,-1.0,6,6,2,2,None,False
74,187,w8d745f1,Yellow,0.0,1332.0,1,3,9,choice,After,Green,1,-2,-2.0,6,6,1,1,None,False
75,188,w8d745f1,Scene,1.0,1680.0,1,4,9,choice,After,Green,2,3,3.0,6,6,2,2,None,False
76,189,w8d745f1,Object,1.0,2523.0,1,5,9,choice,After,Green,1,2,2.0,6,6,1,1,None,False
77,190,w8d745f1,Food,0.0,1329.0,1,6,9,choice,After,Green,3,-5,-5.0,6,6,3,3,None,False
78,212,w02461c5,Food,0.0,1664.0,1,1,9,choice,Before,Food,1,-1,-1.0,4,4,1,1,Food,True
79,213,w02461c5,Green,1.0,3456.0,0,2,9,choice,Before,Food,3,-1,1.0,4,4,2,2,Food,False
80,214,w02461c5,Object,1.0,1042.0,0,3,9,choice,Before,Food,3,-1,2.0,4,4,2,2,Food,False
81,215,w02461c5,Blue,0.0,2316.0,0,4,9,choice,Before,Food,2,1,1.0,4,4,1,1,Food,False
82,216,w02461c5,Animal,1.0,2340.0,1,5,9,choice,Before,Food,2,4,3.0,4,4,1,1,Food,False
83,217,w02461c5,Yellow,1.0,3823.0,1,6,9,choice,Before,Food,1,2,2.0,4,4,1,1,Food,False
84,226,wcc15547,Blue,0.0,2105.0,1,1,9,choice,Before,Blue,2,-2,0.0,3,3,2,2,Blue,True
85,227,wcc15547,Object,1.0,1155.0,0,2,9,choice,Before,Blue,2,-2,-1.0,3,3,1,2,Blue,False
86,228,wcc15547,Yellow,1.0,598.0,1,3,9,choice,Before,Blue,1,2,2.0,3,3,0,1,Blue,False
87,229,wcc15547,Food,0.0,543.0,0,4,9,choice,Before,Blue,1,1,-1.0,3,3,0,1,Blue,False
88,230,wcc15547,Scene,1.0,539.0,1,5,9,choice,Before,Blue,3,3,3.0,3,3,2,3,Blue,False
89,231,wcc15547,Green,0.0,528.0,0,6,9,choice,Before,Blue,3,2,-1.0,3,3,1,1,Blue,False
90,240,w3b16ba3,Green,0.0,2603.0,1,1,9,choice,Before,Green,3,-2,0.0,5,5,3,3,Green,True
91,241,w3b16ba3,Red,1.0,2791.0,1,2,9,choice,Before,Green,1,1,-1.0,5,5,0,1,Green,False
92,242,w3b16ba3,Animal,0.0,3077.0,1,3,9,choice,Before,Green,2,-1,-3.0,5,5,2,2,Green,False
93,243,w3b16ba3,Blue,0.0,3390.0,1,4,9,choice,Before,Green,2,-1,-1.0,5,5,2,2,Green,False
94,244,w3b16ba3,Object,1.0,1718.0,1,5,9,choice,Before,Green,3,1,-1.0,5,5,2,2,Green,False
95,245,w3b16ba3,Scene,1.0,2072.0,0,6,9,choice,Before,Green,1,-2,2.0,5,5,1,1,Green,False
96,274,w90f4896,Green,1.0,3102.0,1,1,9,choice,After,Green,1,1,1.0,5,5,1,1,None,False
97,275,w90f4896,Red,1.0,2059.0,1,2,9,choice,After,Green,2,4,2.0,5,5,1,1,None,False
98,276,w90f4896,Food,0.0,2892.0,0,3,9,choice,After,Green,3,1,1.0,5,5,2,2,None,False
99,277,w90f4896,Yellow,0.0,824.0,1,4,9,choice,After,Green,3,-5,-5.0,5,5,3,3,None,False
100,278,w90f4896,Scene,0.0,2504.0,1,5,9,choice,After,Green,1,-2,-2.0,5,5,1,1,None,False
101,279,w90f4896,Animal,0.0,588.0,0,6,9,choice,After,Green,2,1,-1.0,5,5,2,2,None,False
102,288,we2434bb,Yellow,1.0,6788.0,1,1,9,choice,Before,Yellow,1,1,1.0,4,4,1,1,Yellow,True
103,289,we2434bb,Blue,0.0,3052.0,0,2,9,choice,Before,Yellow,2,1,0.0,4,4,1,1,Yellow,False
104,290,we2434bb,Red,0.0,3969.0,1,3,9,choice,Before,Yellow,3,-1,-2.0,4,4,2,3,Yellow,False
105,291,we2434bb,Scene,1.0,2142.0,0,4,9,choice,Before,Yellow,3,-1,1.0,4,4,2,2,Yellow,False
106,292,we2434bb,Object,1.0,2772.0,1,5,9,choice,Before,Yellow,1,1,1.0,4,4,1,1,Yellow,False
107,293,we2434bb,Food,1.0,1419.0,1,6,9,choice,Before,Yellow,2,1,-3.0,4,4,1,1,Yellow,False
108,302,w05f4989,Object,0.0,2454.0,1,1,9,choice,Before,Object,2,-4,-4.0,6,6,2,2,Object,True
109,303,w05f4989,Food,0.0,4346.0,1,2,9,choice,Before,Object,1,-1,-1.0,6,6,1,1,Object,False
110,304,w05f4989,Yellow,0.0,4804.0,1,3,9,choice,Before,Object,3,-1,-1.0,6,6,3,3,Object,False
111,305,w05f4989,Green,1.0,1833.0,1,4,9,choice,Before,Object,1,2,2.0,6,6,1,1,Object,False
112,306,w05f4989,Animal,1.0,1204.0,1,5,9,choice,Before,Object,3,5,5.0,6,6,3,3,Object,False
113,307,w05f4989,Blue,0.0,1097.0,1,6,9,choice,Before,Object,2,-1,-1.0,6,6,2,2,Object,False
114,316,w4ed0320,Animal,0.0,3780.0,1,1,9,choice,Before,Animal,3,-2,-3.0,6,6,3,3,Animal,True
115,317,w4ed0320,Red,1.0,2114.0,0,2,9,choice,Before,Animal,1,-2,-2.0,6,6,1,1,Animal,False
116,318,w4ed0320,Yellow,0.0,2843.0,0,3,9,choice,Before,Animal,3,4,2.0,6,6,3,3,Animal,False
117,319,w4ed0320,Object,1.0,1951.0,1,4,9,choice,Before,Animal,1,1,2.0,6,6,1,1,Animal,False
118,320,w4ed0320,Blue,0.0,1555.0,1,5,9,choice,Before,Animal,2,-2,0.0,6,6,2,2,Animal,False
119,321,w4ed0320,Scene,0.0,3054.0,0,6,9,choice,Before,Animal,2,1,1.0,6,6,2,2,Animal,False
120,335,w605fd50,Green,0.0,2254.0,1,1,9,choice,Before,Green,3,-1,3.0,4,4,3,3,Green,True
121,336,w605fd50,Object,0.0,5346.0,1,2,9,choice,Before,Green,3,-2,0.0,4,4,1,1,Green,False
122,337,w605fd50,Yellow,1.0,5696.0,0,3,9,choice,Before,Green,1,-1,-1.0,4,4,0,0,Green,False
123,338,w605fd50,Blue,0.0,1971.0,0,4,9,choice,Before,Green,2,3,-2.0,4,4,1,2,Green,False
124,339,w605fd50,Food,1.0,6811.0,1,5,9,choice,Before,Green,1,2,-1.0,4,4,1,2,Green,False
125,340,w605fd50,Animal,0.0,2170.0,0,6,9,choice,Before,Green,2,1,1.0,4,4,2,2,Green,False
126,349,wb772565,Blue,0.0,2992.0,1,1,9,choice,Before,Blue,2,-3,1.0,3,3,1,1,Blue,True
127,350,wb772565,Green,1.0,1433.0,1,2,9,choice,Before,Blue,1,2,2.0,3,3,1,1,Blue,False
128,351,wb772565,Animal,0.0,2338.0,0,3,9,choice,Before,Blue,3,1,3.0,3,3,2,2,Blue,False
129,352,wb772565,Red,0.0,2033.0,0,4,9,choice,Before,Blue,3,1,-2.0,3,3,1,1,Blue,False
130,353,wb772565,Object,0.0,3303.0,0,5,9,choice,Before,Blue,2,1,-3.0,3,3,1,2,Blue,False
131,354,wb772565,Food,0.0,2518.0,1,6,9,choice,Before,Blue,1,-2,1.0,3,3,0,1,Blue,False
132,363,w3fdf5b1,Animal,1.0,4755.0,1,1,9,choice,After,Animal,2,1,1.0,6,6,2,2,None,False
133,364,w3fdf5b1,Yellow,1.0,2752.0,1,2,9,choice,After,Animal,1,1,2.0,6,6,1,1,None,False
134,365,w3fdf5b1,Blue,0.0,2664.0,0,3,9,choice,After,Animal,2,1,0.0,6,6,2,2,None,False
135,366,w3fdf5b1,Green,0.0,3623.0,1,4,9,choice,After,Animal,3,-2,-2.0,6,6,3,3,None,False
136,367,w3fdf5b1,Object,1.0,2986.0,1,5,9,choice,After,Animal,1,1,1.0,6,6,1,1,None,False
137,368,w3fdf5b1,Scene,1.0,5283.0,0,6,9,choice,After,Animal,3,-2,-2.0,6,6,3,3,None,False
138,377,w11538ef,Object,0.0,2483.0,1,1,9,choice,Before,Object,1,-1,-2.0,4,4,1,1,Object,True
139,378,w11538ef,Food,0.0,3265.0,1,2,9,choice,Before,Object,3,-2,1.0,4,4,2,3,Object,False
140,379,w11538ef,Green,1.0,2593.0,0,3,9,choice,Before,Object,3,-1,-2.0,4,4,2,2,Object,False
141,380,w11538ef,Scene,1.0,3819.0,1,4,9,choice,Before,Object,2,4,-2.0,4,4,1,1,Object,False
142,381,w11538ef,Yellow,1.0,2314.0,1,5,9,choice,Before,Object,1,1,1.0,4,4,0,0,Object,False
143,382,w11538ef,Red,0.0,4931.0,0,6,9,choice,Before,Object,2,1,-2.0,4,4,2,3,Object,False
144,390,wdab535b,Food,0.0,3995.0,0,1,9,choice,Before,Food,2,1,-3.0,2,2,1,1,Food,True
145,391,wdab535b,Yellow,0.0,2715.0,0,2,9,choice,Before,Food,3,5,-2.0,2,2,0,0,Food,False
146,392,wdab535b,Blue,1.0,3769.0,0,3,9,choice,Before,Food,1,-2,1.0,2,2,1,1,Food,False
147,393,wdab535b,Scene,0.0,1004.0,1,4,9,choice,Before,Food,3,-1,2.0,2,2,1,1,Food,False
148,394,wdab535b,Animal,0.0,1380.0,0,5,9,choice,Before,Food,1,1,1.0,2,2,0,1,Food,False
149,395,wdab535b,Green,0.0,602.0,1,6,9,choice,Before,Food,2,-2,1.0,2,2,1,1,Food,False
150,404,wc294ae3,Blue,1.0,3483.0,0,1,9,choice,After,Blue,2,-1,1.0,3,3,1,1,None,False
151,405,wc294ae3,Yellow,0.0,3512.0,0,2,9,choice,After,Blue,3,3,-2.0,3,3,1,1,None,False
152,406,wc294ae3,Object,1.0,3288.0,1,3,9,choice,After,Blue,1,2,-1.0,3,3,0,0,None,False
153,407,wc294ae3,Scene,0.0,1886.0,1,4,9,choice,After,Blue,2,-3,3.0,3,3,1,1,None,False
154,408,wc294ae3,Red,1.0,2372.0,0,5,9,choice,After,Blue,1,-2,-2.0,3,3,1,2,None,False
155,409,wc294ae3,Animal,0.0,2909.0,0,6,9,choice,After,Blue,3,1,-5.0,3,3,2,2,None,False
156,418,w0d62ec5,Blue,0.0,4856.0,0,1,9,choice,Before,Blue,1,1,-2.0,3,3,1,1,Blue,True
157,419,w0d62ec5,Object,,,0,2,9,choice,Before,Blue,1,-2,-2.0,3,3,0,1,Blue,False
158,420,w0d62ec5,Scene,1.0,3808.0,1,3,9,choice,Before,Blue,3,1,-2.0,3,3,3,3,Blue,False
159,421,w0d62ec5,Yellow,0.0,3280.0,0,4,9,choice,Before,Blue,2,4,1.0,3,3,1,2,Blue,False
160,422,w0d62ec5,Red,0.0,2409.0,1,5,9,choice,Before,Blue,3,-5,-5.0,3,3,1,1,Blue,False
161,423,w0d62ec5,Animal,0.0,3273.0,0,6,9,choice,Before,Blue,2,1,-2.0,3,3,0,0,Blue,False
162,432,wb0b75c3,Food,1.0,2445.0,1,1,9,choice,Before,Food,3,3,5.0,4,4,2,2,Food,True
163,433,wb0b75c3,Red,0.0,1965.0,1,2,9,choice,Before,Food,3,-1,-2.0,4,4,1,1,Food,False
164,434,wb0b75c3,Animal,1.0,2494.0,0,3,9,choice,Before,Food,1,-2,-2.0,4,4,1,1,Food,False
165,435,wb0b75c3,Object,0.0,1866.0,0,4,9,choice,Before,Food,2,1,-2.0,4,4,1,1,Food,False
166,436,wb0b75c3,Yellow,0.0,3899.0,0,5,9,choice,Before,Food,2,1,1.0,4,4,2,2,Food,False
167,437,wb0b75c3,Green,1.0,1694.0,1,6,9,choice,Before,Food,1,2,2.0,4,4,1,1,Food,False
168,446,w4400cbf,Animal,1.0,5322.0,1,1,9,choice,After,Animal,2,4,1.0,5,5,2,2,None,False
169,447,w4400cbf,Red,0.0,5165.0,1,2,9,choice,After,Animal,1,-1,-1.0,5,5,1,1,None,False
170,448,w4400cbf,Green,1.0,4921.0,1,3,9,choice,After,Animal,3,2,2.0,5,5,2,2,None,False
171,449,w4400cbf,Scene,0.0,4216.0,1,4,9,choice,After,Animal,1,-1,-1.0,5,5,0,0,None,False
172,450,w4400cbf,Blue,1.0,5179.0,1,5,9,choice,After,Animal,2,1,-2.0,5,5,2,2,None,False
173,451,w4400cbf,Object,1.0,4812.0,0,6,9,choice,After,Animal,3,-1,-1.0,5,5,3,3,None,False
174,473,wbc79189,Scene,0.0,1052.0,0,1,9,choice,After,Scene,1,1,-1.0,5,5,1,2,None,False
175,474,wbc79189,Green,0.0,1743.0,1,2,9,choice,After,Scene,1,-2,-1.0,5,5,0,1,None,False
176,475,wbc79189,Red,0.0,1236.0,1,3,9,choice,After,Scene,3,-3,-5.0,5,5,3,3,None,False
177,476,wbc79189,Animal,0.0,1184.0,1,4,9,choice,After,Scene,2,-1,-1.0,5,5,2,2,None,False
178,477,wbc79189,Yellow,1.0,663.0,1,5,9,choice,After,Scene,2,2,2.0,5,5,2,2,None,False
179,478,wbc79189,Food,0.0,889.0,1,6,9,choice,After,Scene,3,-3,-2.0,5,5,2,2,None,False
180,487,w6bec3e7,Red,1.0,3281.0,1,1,9,choice,After,Red,1,2,2.0,4,4,1,2,None,False
181,488,w6bec3e7,Yellow,0.0,3743.0,0,2,9,choice,After,Red,2,4,1.0,4,4,2,3,None,False
182,489,w6bec3e7,Animal,0.0,4213.0,0,3,9,choice,After,Red,2,1,-2.0,4,4,1,1,None,False
183,490,w6bec3e7,Object,1.0,1349.0,1,4,9,choice,After,Red,3,2,2.0,4,4,2,2,None,False
184,491,w6bec3e7,Blue,0.0,1854.0,1,5,9,choice,After,Red,3,-4,-4.0,4,4,1,1,None,False
185,492,w6bec3e7,Food,0.0,1738.0,1,6,9,choice,After,Red,1,-1,-1.0,4,4,1,1,None,False
186,501,w6ea0c26,Object,1.0,3903.0,0,1,9,choice,Before,Object,3,-1,-3.0,3,3,2,3,Object,True
187,502,w6ea0c26,Scene,0.0,2847.0,0,2,9,choice,Before,Object,2,4,1.0,3,3,1,2,Object,False
188,503,w6ea0c26,Green,1.0,1029.0,0,3,9,choice,Before,Object,1,-1,-2.0,3,3,1,1,Object,False
189,504,w6ea0c26,Food,1.0,984.0,0,4,9,choice,Before,Object,1,-1,-2.0,3,3,0,1,Object,False
190,505,w6ea0c26,Blue,1.0,795.0,0,5,9,choice,Before,Object,3,-1,-2.0,3,3,1,1,Object,False
191,506,w6ea0c26,Yellow,1.0,3289.0,1,6,9,choice,Before,Object,2,4,0.0,3,3,1,1,Object,False
192,515,w924a500,Food,0.0,2878.0,1,1,9,choice,Before,Food,2,-3,0.0,6,6,2,2,Food,True
193,516,w924a500,Green,1.0,4216.0,0,2,9,choice,Before,Food,2,-2,-2.0,6,6,2,2,Food,False
194,517,w924a500,Red,1.0,4281.0,1,3,9,choice,Before,Food,1,2,2.0,6,6,1,1,Food,False
195,518,w924a500,Yellow,1.0,3430.0,1,4,9,choice,Before,Food,3,1,3.0,6,6,3,3,Food,False
196,519,w924a500,Object,0.0,3425.0,0,5,9,choice,Before,Food,1,2,1.0,6,6,1,1,Food,False
197,520,w924a500,Scene,0.0,3595.0,0,6,9,choice,Before,Food,3,2,2.0,6,6,3,3,Food,False
198,527,w10f7bc5,Red,1.0,3430.0,1,1,9,choice,After,Red,2,3,-1.0,4,4,2,2,None,False
199,528,w10f7bc5,Animal,0.0,1521.0,1,2,9,choice,After,Red,1,-2,-1.0,4,4,0,0,None,False
200,529,w10f7bc5,Blue,0.0,1695.0,1,3,9,choice,After,Red,1,-1,-1.0,4,4,0,0,None,False
201,530,w10f7bc5,Food,1.0,1727.0,1,4,9,choice,After,Red,3,1,1.0,4,4,2,2,None,False
202,531,w10f7bc5,Scene,0.0,1481.0,0,5,9,choice,After,Red,2,1,-4.0,4,4,2,2,None,False
203,532,w10f7bc5,Green,1.0,1987.0,0,6,9,choice,After,Red,3,-2,-2.0,4,4,2,2,None,False
204,541,w2c75db7,Green,1.0,7449.0,1,1,9,choice,After,Green,2,1,-2.0,3,3,1,1,None,False
205,542,w2c75db7,Food,0.0,2002.0,0,2,9,choice,After,Green,2,1,-2.0,3,3,0,1,None,False
206,543,w2c75db7,Blue,1.0,1050.0,1,3,9,choice,After,Green,1,1,1.0,3,3,1,2,None,False
207,544,w2c75db7,Scene,0.0,1770.0,0,4,9,choice,After,Green,3,1,2.0,3,3,2,2,None,False
208,545,w2c75db7,Animal,0.0,1042.0,1,5,9,choice,After,Green,1,-1,-1.0,3,3,1,2,None,False
209,546,w2c75db7,Yellow,0.0,819.0,1,6,9,choice,After,Green,3,-1,0.0,3,3,1,2,None,False
210,555,w2c1f2f7,Food,0.0,2326.0,1,1,9,choice,Before,Food,3,-1,-1.0,5,5,3,3,Food,True
211,556,w2c1f2f7,Animal,1.0,1285.0,0,2,9,choice,Before,Food,2,-1,0.0,5,5,1,1,Food,False
212,557,w2c1f2f7,Scene,0.0,2749.0,0,3,9,choice,Before,Food,1,1,2.0,5,5,1,2,Food,False
213,558,w2c1f2f7,Blue,1.0,2506.0,1,4,9,choice,Before,Food,1,2,2.0,5,5,1,1,Food,False
214,559,w2c1f2f7,Green,1.0,1879.0,1,5,9,choice,Before,Food,3,1,2.0,5,5,3,3,Food,False
215,560,w2c1f2f7,Yellow,0.0,2935.0,1,6,9,choice,Before,Food,2,-4,-3.0,5,5,1,2,Food,False
216,569,wace8728,Yellow,1.0,1998.0,1,1,9,choice,Before,Yellow,1,2,0.0,3,3,1,1,Yellow,True
217,570,wace8728,Scene,0.0,2583.0,0,2,9,choice,Before,Yellow,1,1,0.0,3,3,0,0,Yellow,False
218,571,wace8728,Green,0.0,2878.0,1,3,9,choice,Before,Yellow,2,-3,0.0,3,3,1,1,Yellow,False
219,572,wace8728,Object,0.0,3057.0,0,4,9,choice,Before,Yellow,3,3,0.0,3,3,2,2,Yellow,False
220,573,wace8728,Red,1.0,1563.0,1,5,9,choice,Before,Yellow,3,2,0.0,3,3,1,1,Yellow,False
221,574,wace8728,Animal,0.0,1777.0,1,6,9,choice,Before,Yellow,2,-3,0.0,3,3,1,1,Yellow,False
222,583,wd07cb72,Scene,0.0,687.0,1,1,9,choice,Before,Scene,2,-3,-4.0,4,4,1,2,Scene,True
223,584,wd07cb72,Animal,1.0,411.0,1,2,9,choice,Before,Scene,3,4,4.0,4,4,3,3,Scene,False
224,585,wd07cb72,Object,0.0,458.0,1,3,9,choice,Before,Scene,1,-2,2.0,4,4,0,0,Scene,False
225,586,wd07cb72,Yellow,0.0,1957.0,1,4,9,choice,Before,Scene,3,-3,1.0,4,4,1,1,Scene,False
226,587,wd07cb72,Red,1.0,2100.0,1,5,9,choice,Before,Scene,1,1,1.0,4,4,1,2,Scene,False
227,588,wd07cb72,Blue,1.0,426.0,1,6,9,choice,Before,Scene,2,1,0.0,4,4,2,2,Scene,False
228,597,w0fd8c2c,Blue,1.0,1702.0,1,1,9,choice,After,Blue,1,2,-2.0,5,5,1,1,None,False
229,598,w0fd8c2c,Red,0.0,3946.0,1,2,9,choice,After,Blue,3,-1,-1.0,5,5,2,2,None,False
230,599,w0fd8c2c,Food,1.0,3865.0,0,3,9,choice,After,Blue,3,-1,-2.0,5,5,3,3,None,False
231,600,w0fd8c2c,Animal,0.0,2337.0,1,4,9,choice,After,Blue,2,-1,-3.0,5,5,1,1,None,False
232,601,w0fd8c2c,Yellow,1.0,1946.0,0,5,9,choice,After,Blue,2,-1,-1.0,5,5,2,2,None,False
233,602,w0fd8c2c,Scene,1.0,1291.0,1,6,9,choice,After,Blue,1,2,1.0,5,5,1,2,None,False
234,610,w117e095,Animal,0.0,1647.0,1,1,9,choice,Before,Animal,3,-5,-5.0,1,1,1,2,Animal,True
235,611,w117e095,Blue,1.0,2043.0,1,2,9,choice,Before,Animal,2,1,-1.0,1,1,1,1,Animal,False
236,612,w117e095,Object,0.0,1574.0,0,3,9,choice,Before,Animal,1,2,-1.0,1,1,0,0,Animal,False
237,613,w117e095,Red,0.0,562.0,1,4,9,choice,Before,Animal,1,-2,-2.0,1,1,0,0,Animal,False
238,614,w117e095,Yellow,0.0,639.0,0,5,9,choice,Before,Animal,3,2,0.0,1,1,0,0,Animal,False
239,615,w117e095,Scene,0.0,1087.0,0,6,9,choice,Before,Animal,2,4,3.0,1,1,0,0,Animal,False
240,649,we58a710,Scene,1.0,1676.0,1,1,9,choice,After,Scene,3,1,1.0,6,6,3,3,None,False
241,650,we58a710,Yellow,0.0,1617.0,1,2,9,choice,After,Scene,2,-3,-3.0,6,6,2,2,None,False
242,651,we58a710,Blue,1.0,1997.0,1,3,9,choice,After,Scene,1,1,1.0,6,6,1,1,None,False
243,652,we58a710,Object,1.0,1168.0,1,4,9,choice,After,Scene,1,2,2.0,6,6,1,1,None,False
244,653,we58a710,Red,1.0,2033.0,1,5,9,choice,After,Scene,3,2,2.0,6,6,3,3,None,False
245,654,we58a710,Animal,0.0,1018.0,1,6,9,choice,After,Scene,2,-3,-3.0,6,6,2,2,None,False
246,663,w53b40c8,Blue,0.0,2796.0,1,1,9,choice,After,Blue,2,-4,0.0,3,3,1,1,None,False
247,664,w53b40c8,Green,1.0,3386.0,1,2,9,choice,After,Blue,3,3,0.0,3,3,1,1,None,False
248,665,w53b40c8,Yellow,1.0,4171.0,0,3,9,choice,After,Blue,1,-1,0.0,3,3,1,1,None,False
249,666,w53b40c8,Object,1.0,1379.0,0,4,9,choice,After,Blue,2,-1,0.0,3,3,1,1,None,False
250,667,w53b40c8,Food,0.0,2316.0,0,5,9,choice,After,Blue,1,1,0.0,3,3,0,0,None,False
251,668,w53b40c8,Scene,0.0,572.0,1,6,9,choice,After,Blue,3,-2,0.0,3,3,2,2,None,False
252,676,wc0a4260,Red,1.0,1472.0,0,1,9,choice,After,Red,1,-2,1.0,1,1,0,2,None,False
253,677,wc0a4260,Object,1.0,1915.0,0,2,9,choice,After,Red,1,-1,-2.0,1,1,1,2,None,False
254,678,wc0a4260,Yellow,0.0,1468.0,1,3,9,choice,After,Red,3,-2,-4.0,1,1,1,1,None,False
255,679,wc0a4260,Animal,1.0,1612.0,0,4,9,choice,After,Red,3,-3,2.0,1,1,0,1,None,False
256,680,wc0a4260,Blue,1.0,384.0,1,5,9,choice,After,Red,2,3,3.0,1,1,0,2,None,False
257,681,wc0a4260,Scene,1.0,949.0,1,6,9,choice,After,Red,2,3,0.0,1,1,0,1,None,False
258,706,w6dd030e,Scene,1.0,3358.0,0,1,9,choice,After,Scene,3,-3,-2.0,4,4,3,3,None,False
259,707,w6dd030e,Blue,1.0,3823.0,1,2,9,choice,After,Scene,2,3,2.0,4,4,1,1,None,False
260,708,w6dd030e,Food,1.0,4255.0,1,3,9,choice,After,Scene,2,3,2.0,4,4,0,0,None,False
261,709,w6dd030e,Object,0.0,3016.0,1,4,9,choice,After,Scene,1,-1,-1.0,4,4,1,2,None,False
262,710,w6dd030e,Red,0.0,3255.0,1,5,9,choice,After,Scene,3,-2,-2.0,4,4,2,2,None,False
263,711,w6dd030e,Yellow,0.0,4293.0,1,6,9,choice,After,Scene,1,-2,-1.0,4,4,1,2,None,False
264,728,wd0724cf,Scene,0.0,3277.0,1,1,9,choice,After,Scene,1,-1,-2.0,5,5,1,1,None,False
265,729,wd0724cf,Animal,1.0,2607.0,1,2,9,choice,After,Scene,2,1,0.0,5,5,2,2,None,False
266,730,wd0724cf,Red,0.0,4333.0,1,3,9,choice,After,Scene,3,-1,-6.0,5,5,2,2,None,False
267,731,wd0724cf,Food,0.0,3244.0,0,4,9,choice,After,Scene,3,1,-2.0,5,5,2,2,None,False
268,732,wd0724cf,Yellow,1.0,1499.0,1,5,9,choice,After,Scene,2,4,4.0,5,5,2,3,None,False
269,733,wd0724cf,Blue,0.0,2424.0,1,6,9,choice,After,Scene,1,-2,-2.0,5,5,1,1,None,False
270,742,w29ed098,Animal,1.0,5031.0,1,1,9,choice,After,Animal,1,2,-1.0,4,4,1,1,None,False
271,743,w29ed098,Object,0.0,3655.0,1,2,9,choice,After,Animal,2,-3,0.0,4,4,2,3,None,False
272,744,w29ed098,Red,1.0,2086.0,0,3,9,choice,After,Animal,3,-1,-5.0,4,4,2,2,None,False
273,745,w29ed098,Food,1.0,867.0,1,4,9,choice,After,Animal,3,2,2.0,4,4,1,1,None,False
274,746,w29ed098,Green,0.0,3562.0,0,5,9,choice,After,Animal,1,1,2.0,4,4,0,0,None,False
275,747,w29ed098,Yellow,1.0,1714.0,1,6,9,choice,After,Animal,2,1,4.0,4,4,2,2,None,False
276,756,w3327d2a,Animal,1.0,2406.0,0,1,9,choice,After,Animal,1,-1,2.0,1,1,1,3,None,False
277,757,w3327d2a,Green,0.0,2443.0,1,2,9,choice,After,Animal,1,-2,2.0,1,1,0,1,None,False
278,758,w3327d2a,Object,0.0,2650.0,0,3,9,choice,After,Animal,2,4,3.0,1,1,0,0,None,False
279,759,w3327d2a,Red,0.0,1187.0,1,4,9,choice,After,Animal,3,-1,1.0,1,1,1,1,None,False
280,760,w3327d2a,Yellow,0.0,1098.0,0,5,9,choice,After,Animal,2,3,1.0,1,1,0,1,None,False
281,761,w3327d2a,Food,0.0,1244.0,1,6,9,choice,After,Animal,3,-3,-1.0,1,1,0,0,None,False
282,770,w5685230,Food,1.0,1261.0,1,1,9,choice,Before,Food,3,1,1.0,4,4,2,2,Food,True
283,771,w5685230,Blue,0.0,4804.0,1,2,9,choice,Before,Food,3,-1,-4.0,4,4,2,2,Food,False
284,772,w5685230,Green,1.0,4749.0,1,3,9,choice,Before,Food,1,1,1.0,4,4,0,0,Food,False
285,773,w5685230,Animal,0.0,4515.0,1,4,9,choice,Before,Food,2,-1,1.0,4,4,1,1,Food,False
286,774,w5685230,Scene,1.0,4808.0,0,5,9,choice,Before,Food,1,-1,-2.0,4,4,1,2,Food,False
287,775,w5685230,Red,1.0,3620.0,0,6,9,choice,Before,Food,2,-1,3.0,4,4,2,3,Food,False
288,784,w30e05e4,Food,0.0,4780.0,1,1,9,choice,After,Food,3,-3,0.0,5,5,1,1,None,False
289,785,w30e05e4,Green,0.0,5860.0,1,2,9,choice,After,Food,1,-2,1.0,5,5,0,1,None,False
290,786,w30e05e4,Scene,0.0,4324.0,1,3,9,choice,After,Food,1,-2,-2.0,5,5,1,1,None,False
291,787,w30e05e4,Red,1.0,2425.0,1,4,9,choice,After,Food,2,3,-1.0,5,5,2,2,None,False
292,788,w30e05e4,Blue,1.0,4459.0,0,5,9,choice,After,Food,3,-2,-6.0,5,5,2,2,None,False
293,789,w30e05e4,Animal,0.0,4409.0,0,6,9,choice,After,Food,2,4,-4.0,5,5,2,2,None,False
294,799,wbe9243a,Yellow,0.0,4261.0,0,1,9,choice,After,Yellow,3,1,1.0,6,6,3,3,None,False
295,800,wbe9243a,Blue,1.0,3264.0,1,2,9,choice,After,Yellow,2,1,1.0,6,6,2,2,None,False
296,801,wbe9243a,Object,1.0,3786.0,1,3,9,choice,After,Yellow,1,1,1.0,6,6,1,1,None,False
297,802,wbe9243a,Scene,0.0,3711.0,1,4,9,choice,After,Yellow,2,-2,-2.0,6,6,2,2,None,False
298,803,wbe9243a,Animal,1.0,4922.0,1,5,9,choice,After,Yellow,3,2,2.0,6,6,3,3,None,False
299,804,wbe9243a,Red,0.0,4807.0,1,6,9,choice,After,Yellow,1,-1,-1.0,6,6,1,1,None,False
300,816,w0ef0b67,Red,1.0,1118.0,0,1,9,choice,After,Red,2,-2,-2.0,3,3,0,0,None,False
301,817,w0ef0b67,Green,0.0,2026.0,0,2,9,choice,After,Red,3,2,-3.0,3,3,2,2,None,False
302,818,w0ef0b67,Object,0.0,3480.0,0,3,9,choice,After,Red,3,3,-3.0,3,3,2,2,None,False
303,819,w0ef0b67,Scene,1.0,4900.0,0,4,9,choice,After,Red,2,-2,-2.0,3,3,0,0,None,False
304,820,w0ef0b67,Yellow,0.0,654.0,0,5,9,choice,After,Red,1,2,-1.0,3,3,1,1,None,False
305,821,w0ef0b67,Animal,1.0,797.0,1,6,9,choice,After,Red,1,1,-1.0,3,3,1,1,None,False
306,830,wea8ef8e,Green,0.0,2033.0,1,1,9,choice,Before,Green,1,-1,1.0,2,2,0,1,Green,True
307,831,wea8ef8e,Scene,1.0,2614.0,1,2,9,choice,Before,Green,3,2,-1.0,2,2,2,2,Green,False
308,832,wea8ef8e,Blue,1.0,2691.0,0,3,9,choice,Before,Green,3,-2,-3.0,2,2,1,2,Green,False
309,833,wea8ef8e,Object,0.0,2407.0,1,4,9,choice,Before,Green,1,-1,-1.0,2,2,0,1,Green,False
310,834,wea8ef8e,Yellow,0.0,2492.0,0,5,9,choice,Before,Green,2,3,-3.0,2,2,1,2,Green,False
311,835,wea8ef8e,Food,1.0,2636.0,0,6,9,choice,Before,Green,2,-1,-3.0,2,2,0,1,Green,False
312,849,we38f335,Food,0.0,3577.0,1,1,9,choice,Before,Food,1,-2,-2.0,6,6,1,1,Food,True
313,850,we38f335,Blue,0.0,1659.0,1,2,9,choice,Before,Food,2,-4,2.0,6,6,2,2,Food,False
314,851,we38f335,Object,0.0,1455.0,1,3,9,choice,Before,Food,2,-1,2.0,6,6,2,2,Food,False
315,852,we38f335,Green,1.0,1826.0,1,4,9,choice,Before,Food,3,1,-2.0,6,6,3,3,Food,False
316,853,we38f335,Yellow,1.0,626.0,1,5,9,choice,Before,Food,1,2,-1.0,6,6,1,1,Food,False
317,854,we38f335,Scene,0.0,3166.0,0,6,9,choice,Before,Food,3,2,-1.0,6,6,3,3,Food,False
318,863,wc6f0e84,Scene,1.0,1195.0,1,1,9,choice,Before,Scene,1,1,1.0,4,4,1,1,Scene,True
319,864,wc6f0e84,Red,0.0,2422.0,1,2,9,choice,Before,Scene,1,-2,-2.0,4,4,0,0,Scene,False
320,865,wc6f0e84,Food,1.0,2331.0,0,3,9,choice,Before,Scene,3,-2,-3.0,4,4,2,2,Scene,False
321,866,wc6f0e84,Blue,0.0,2022.0,0,4,9,choice,Before,Scene,2,3,3.0,4,4,2,2,Scene,False
322,867,wc6f0e84,Object,0.0,1834.0,0,5,9,choice,Before,Scene,2,1,0.0,4,4,1,1,Scene,False
323,868,wc6f0e84,Green,1.0,1500.0,0,6,9,choice,Before,Scene,3,-1,-3.0,4,4,2,2,Scene,False
324,877,wab226bf,Scene,1.0,1980.0,1,1,9,choice,After,Scene,3,5,-1.0,5,5,3,3,None,False
325,878,wab226bf,Object,1.0,6397.0,0,2,9,choice,After,Scene,1,-2,-1.0,5,5,0,0,None,False
326,879,wab226bf,Animal,0.0,891.0,1,3,9,choice,After,Scene,2,-4,1.0,5,5,2,2,None,False
327,880,wab226bf,Yellow,1.0,3518.0,0,4,9,choice,After,Scene,2,-1,1.0,5,5,2,3,None,False
328,881,wab226bf,Blue,1.0,1067.0,1,5,9,choice,After,Scene,1,2,2.0,5,5,1,1,None,False
329,882,wab226bf,Red,0.0,1946.0,1,6,9,choice,After,Scene,3,-2,-4.0,5,5,2,2,None,False
330,890,w2a7296e,Animal,1.0,1701.0,1,1,9,choice,After,Animal,3,1,5.0,2,2,2,3,None,False
331,891,w2a7296e,Scene,0.0,1055.0,1,2,9,choice,After,Animal,2,-3,0.0,2,2,0,2,None,False
332,892,w2a7296e,Object,0.0,782.0,0,3,9,choice,After,Animal,1,1,1.0,2,2,0,1,None,False
333,893,w2a7296e,Blue,1.0,392.0,0,4,9,choice,After,Animal,1,-2,2.0,2,2,0,1,None,False
334,894,w2a7296e,Green,1.0,583.0,1,5,9,choice,After,Animal,3,2,4.0,2,2,1,1,None,False
335,895,w2a7296e,Red,0.0,1235.0,1,6,9,choice,After,Animal,2,-1,0.0,2,2,1,2,None,False
336,904,w1629b0b,Object,1.0,5015.0,1,1,9,choice,After,Object,3,2,0.0,3,3,1,1,None,False
337,905,w1629b0b,Blue,0.0,3443.0,1,2,9,choice,After,Object,1,-1,0.0,3,3,0,0,None,False
338,906,w1629b0b,Red,1.0,1021.0,1,3,9,choice,After,Object,3,2,0.0,3,3,1,1,None,False
339,907,w1629b0b,Green,0.0,752.0,1,4,9,choice,After,Object,2,-1,0.0,3,3,2,2,None,False
340,908,w1629b0b,Animal,0.0,1342.0,1,5,9,choice,After,Object,2,-3,0.0,3,3,1,1,None,False
341,909,w1629b0b,Scene,1.0,4591.0,1,6,9,choice,After,Object,1,1,0.0,3,3,1,1,None,False
342,918,w580c449,Yellow,1.0,4055.0,1,1,9,choice,After,Yellow,3,1,5.0,2,2,1,1,None,False
343,919,w580c449,Scene,0.0,4372.0,0,2,9,choice,After,Yellow,1,1,1.0,2,2,1,1,None,False
344,920,w580c449,Animal,1.0,1287.0,0,3,9,choice,After,Yellow,2,-1,4.0,2,2,0,0,None,False
345,921,w580c449,Green,0.0,937.0,1,4,9,choice,After,Yellow,1,-1,-1.0,2,2,1,1,None,False
346,922,w580c449,Red,1.0,1609.0,0,5,9,choice,After,Yellow,2,-1,1.0,2,2,0,0,None,False
347,923,w580c449,Food,0.0,1507.0,1,6,9,choice,After,Yellow,3,-1,0.0,2,2,1,1,None,False
348,932,w768a02c,Yellow,0.0,2139.0,1,1,9,choice,Before,Yellow,3,-1,-2.0,4,4,2,3,Yellow,True
349,933,w768a02c,Scene,1.0,2292.0,1,2,9,choice,Before,Yellow,2,3,3.0,4,4,1,1,Yellow,False
350,934,w768a02c,Object,0.0,2583.0,1,3,9,choice,Before,Yellow,1,-1,-1.0,4,4,1,1,Yellow,False
351,935,w768a02c,Red,1.0,1868.0,0,4,9,choice,Before,Yellow,1,-1,-1.0,4,4,1,1,Yellow,False
352,936,w768a02c,Animal,1.0,1279.0,0,5,9,choice,Before,Yellow,3,-1,-4.0,4,4,2,2,Yellow,False
353,937,w768a02c,Blue,0.0,1633.0,0,6,9,choice,Before,Yellow,2,3,1.0,4,4,1,2,Yellow,False
354,945,w308aa07,Object,1.0,3771.0,0,1,9,choice,Before,Object,2,-1,-1.0,6,6,2,2,Object,True
355,946,w308aa07,Animal,1.0,1764.0,1,2,9,choice,Before,Object,1,2,2.0,6,6,1,1,Object,False
356,947,w308aa07,Yellow,0.0,2558.0,1,3,9,choice,Before,Object,2,-3,-3.0,6,6,2,2,Object,False
357,948,w308aa07,Food,0.0,3895.0,1,4,9,choice,Before,Object,3,-1,-1.0,6,6,3,3,Object,False
358,949,w308aa07,Red,1.0,1002.0,1,5,9,choice,Before,Object,3,5,5.0,6,6,3,3,Object,False
359,950,w308aa07,Green,0.0,2629.0,1,6,9,choice,Before,Object,1,-2,-2.0,6,6,1,1,Object,False
360,959,w365c8db,Green,1.0,2003.0,1,1,9,choice,After,Green,3,1,-1.0,6,6,3,3,None,False
361,960,w365c8db,Scene,1.0,3056.0,1,2,9,choice,After,Green,2,3,1.0,6,6,2,2,None,False
362,961,w365c8db,Blue,1.0,2434.0,0,3,9,choice,After,Green,1,-1,1.0,6,6,1,1,None,False
363,962,w365c8db,Food,0.0,1927.0,1,4,9,choice,After,Green,3,-1,1.0,6,6,3,3,None,False
364,963,w365c8db,Animal,0.0,2117.0,1,5,9,choice,After,Green,1,-1,-1.0,6,6,1,1,None,False
365,964,w365c8db,Red,1.0,2894.0,1,6,9,choice,After,Green,2,1,1.0,6,6,2,2,None,False
366,973,w737e6e4,Green,1.0,1826.0,1,1,9,choice,After,Green,2,2,-3.0,3,3,1,1,None,False
367,974,w737e6e4,Red,1.0,2687.0,0,2,9,choice,After,Green,3,-1,1.0,3,3,1,1,None,False
368,975,w737e6e4,Blue,0.0,989.0,1,3,9,choice,After,Green,1,-2,-2.0,3,3,1,1,None,False
369,976,w737e6e4,Object,0.0,2191.0,0,4,9,choice,After,Green,3,1,-3.0,3,3,2,2,None,False
370,977,w737e6e4,Scene,0.0,1609.0,1,5,9,choice,After,Green,1,-1,-1.0,3,3,0,0,None,False
371,978,w737e6e4,Animal,1.0,1855.0,0,6,9,choice,After,Green,2,-1,0.0,3,3,1,1,None,False
372,987,wc097323,Scene,1.0,5804.0,1,1,9,choice,After,Scene,1,1,1.0,6,6,1,1,None,False
373,988,wc097323,Blue,1.0,4388.0,1,2,9,choice,After,Scene,1,2,2.0,6,6,1,1,None,False
374,989,wc097323,Food,1.0,4429.0,1,3,9,choice,After,Scene,3,3,3.0,6,6,3,3,None,False
375,990,wc097323,Green,0.0,4901.0,1,4,9,choice,After,Scene,3,-1,-1.0,6,6,3,3,None,False
376,991,wc097323,Yellow,1.0,6122.0,1,5,9,choice,After,Scene,2,1,-1.0,6,6,2,2,None,False
377,992,wc097323,Animal,0.0,3901.0,1,6,9,choice,After,Scene,2,-2,-4.0,6,6,2,2,None,False
378,1001,w35dbe71,Animal,1.0,5074.0,1,1,9,choice,Before,Animal,3,2,3.0,6,6,3,3,Animal,True
379,1002,w35dbe71,Food,1.0,4272.0,1,2,9,choice,Before,Animal,1,2,2.0,6,6,1,1,Animal,False
380,1003,w35dbe71,Object,0.0,3237.0,1,3,9,choice,Before,Animal,2,-4,-4.0,6,6,2,2,Animal,False
381,1004,w35dbe71,Red,1.0,3526.0,1,4,9,choice,Before,Animal,3,2,2.0,6,6,3,3,Animal,False
382,1005,w35dbe71,Green,0.0,3230.0,0,5,9,choice,Before,Animal,1,1,2.0,6,6,1,1,Animal,False
383,1006,w35dbe71,Blue,0.0,3626.0,1,6,9,choice,Before,Animal,2,-3,-3.0,6,6,2,2,Animal,False
384,1015,w7f90916,Green,1.0,1729.0,1,1,9,choice,Before,Green,3,1,1.0,3,3,2,3,Green,True
385,1016,w7f90916,Blue,0.0,3673.0,0,2,9,choice,Before,Green,1,1,-2.0,3,3,0,0,Green,False
386,1017,w7f90916,Food,0.0,3127.0,0,3,9,choice,Before,Green,3,1,-2.0,3,3,0,0,Green,False
387,1018,w7f90916,Animal,1.0,3997.0,1,4,9,choice,Before,Green,1,1,-2.0,3,3,1,1,Green,False
388,1019,w7f90916,Scene,0.0,1182.0,1,5,9,choice,Before,Green,2,-3,0.0,3,3,2,2,Green,False
389,1020,w7f90916,Red,0.0,1457.0,1,6,9,choice,Before,Green,2,-3,-3.0,3,3,1,1,Green,False
390,1029,w9051394,Animal,0.0,3089.0,1,1,9,choice,After,Animal,1,-2,-2.0,6,6,1,1,None,False
391,1030,w9051394,Scene,1.0,2876.0,1,2,9,choice,After,Animal,2,3,3.0,6,6,2,2,None,False
392,1031,w9051394,Red,0.0,4730.0,1,3,9,choice,After,Animal,2,-1,-1.0,6,6,2,2,None,False
393,1032,w9051394,Green,0.0,2063.0,1,4,9,choice,After,Animal,3,-1,-1.0,6,6,3,3,None,False
394,1033,w9051394,Food,1.0,1548.0,0,5,9,choice,After,Animal,3,-1,-1.0,6,6,3,3,None,False
395,1034,w9051394,Yellow,0.0,3118.0,0,6,9,choice,After,Animal,1,2,2.0,6,6,1,1,None,False
396,1048,w44f5ace,Animal,1.0,4304.0,1,1,9,choice,Before,Animal,3,2,2.0,2,2,0,1,Animal,True
397,1049,w44f5ace,Object,1.0,3517.0,0,2,9,choice,Before,Animal,2,-1,1.0,2,2,1,1,Animal,False
398,1050,w44f5ace,Food,1.0,2348.0,0,3,9,choice,Before,Animal,1,-1,1.0,2,2,1,2,Animal,False
399,1051,w44f5ace,Blue,0.0,978.0,0,4,9,choice,Before,Animal,2,2,0.0,2,2,1,1,Animal,False
400,1052,w44f5ace,Green,1.0,3838.0,1,5,9,choice,Before,Animal,1,2,2.0,2,2,0,1,Animal,False
401,1053,w44f5ace,Red,1.0,2561.0,0,6,9,choice,Before,Animal,3,-4,2.0,2,2,1,1,Animal,False
402,1062,we1b8e64,Food,0.0,3390.0,1,1,9,choice,After,Food,3,-2,-1.0,3,3,2,2,None,False
403,1063,we1b8e64,Animal,1.0,1646.0,1,2,9,choice,After,Food,2,3,1.0,3,3,0,0,None,False
404,1064,we1b8e64,Green,1.0,3057.0,0,3,9,choice,After,Food,1,-2,-2.0,3,3,0,1,None,False
405,1065,we1b8e64,Red,1.0,807.0,1,4,9,choice,After,Food,3,2,5.0,3,3,2,2,None,False
406,1066,we1b8e64,Yellow,0.0,825.0,1,5,9,choice,After,Food,2,-1,-2.0,3,3,1,1,None,False
407,1067,we1b8e64,Scene,1.0,4452.0,0,6,9,choice,After,Food,1,-2,1.0,3,3,1,2,None,False
408,1076,w44c6cc9,Red,0.0,3626.0,1,1,9,choice,Before,Red,2,-1,-1.0,6,6,2,2,Red,True
409,1077,w44c6cc9,Yellow,0.0,7305.0,0,2,9,choice,Before,Red,1,1,1.0,6,6,1,1,Red,False
410,1078,w44c6cc9,Scene,1.0,1902.0,1,3,9,choice,Before,Red,2,3,3.0,6,6,2,2,Red,False
411,1079,w44c6cc9,Food,0.0,1989.0,1,4,9,choice,Before,Red,3,-3,-3.0,6,6,3,3,Red,False
412,1080,w44c6cc9,Animal,0.0,2939.0,1,5,9,choice,Before,Red,1,-1,-2.0,6,6,1,1,Red,False
413,1081,w44c6cc9,Green,1.0,2266.0,0,6,9,choice,Before,Red,3,-1,-2.0,6,6,3,3,Red,False
414,1090,w60e6ea8,Green,0.0,1885.0,1,1,9,choice,Before,Green,3,-5,-5.0,3,3,2,2,Green,True
415,1091,w60e6ea8,Food,1.0,4807.0,1,2,9,choice,Before,Green,3,3,2.0,3,3,2,3,Green,False
416,1092,w60e6ea8,Red,1.0,3712.0,1,3,9,choice,Before,Green,1,2,1.0,3,3,0,0,Green,False
417,1093,w60e6ea8,Blue,1.0,1292.0,1,4,9,choice,Before,Green,2,3,4.0,3,3,1,1,Green,False
418,1094,w60e6ea8,Object,0.0,1971.0,1,5,9,choice,Before,Green,2,-1,0.0,3,3,0,0,Green,False
419,1095,w60e6ea8,Scene,0.0,1890.0,1,6,9,choice,Before,Green,1,-2,-2.0,3,3,1,1,Green,False
420,1104,wbe569b5,Animal,1.0,2215.0,1,1,9,choice,Before,Animal,2,3,3.0,5,5,2,2,Animal,True
421,1105,wbe569b5,Red,0.0,1352.0,1,2,9,choice,Before,Animal,2,-1,0.0,5,5,2,2,Animal,False
422,1106,wbe569b5,Green,0.0,1246.0,0,3,9,choice,Before,Animal,1,2,2.0,5,5,1,1,Animal,False
423,1107,wbe569b5,Scene,0.0,1179.0,1,4,9,choice,Before,Animal,1,-1,-1.0,5,5,0,1,Animal,False
424,1108,wbe569b5,Yellow,0.0,1992.0,1,5,9,choice,Before,Animal,3,-1,1.0,5,5,2,2,Animal,False
425,1109,wbe569b5,Food,0.0,4142.0,1,6,9,choice,Before,Animal,3,-2,1.0,5,5,3,3,Animal,False
426,1120,wdfdc927,Blue,1.0,3489.0,1,1,9,choice,After,Blue,2,1,1.0,6,6,2,2,None,False
427,1121,wdfdc927,Yellow,1.0,4978.0,1,2,9,choice,After,Blue,1,2,2.0,6,6,1,1,None,False
428,1122,wdfdc927,Object,0.0,2895.0,1,3,9,choice,After,Blue,1,-2,-2.0,6,6,1,1,None,False
429,1123,wdfdc927,Red,1.0,2453.0,0,4,9,choice,After,Blue,3,-3,-6.0,6,6,3,3,None,False
430,1124,wdfdc927,Food,0.0,2529.0,0,5,9,choice,After,Blue,2,3,0.0,6,6,2,2,None,False
431,1125,wdfdc927,Scene,0.0,2755.0,1,6,9,choice,After,Blue,3,-1,-1.0,6,6,3,3,None,False
432,1134,w2991322,Object,1.0,3247.0,0,1,9,choice,After,Object,1,-1,-2.0,3,3,0,0,None,False
433,1135,w2991322,Scene,0.0,2980.0,0,2,9,choice,After,Object,3,2,2.0,3,3,2,2,None,False
434,1136,w2991322,Food,1.0,748.0,0,3,9,choice,After,Object,2,-1,1.0,3,3,1,1,None,False
435,1137,w2991322,Red,0.0,3889.0,0,4,9,choice,After,Object,1,2,2.0,3,3,1,2,None,False
436,1138,w2991322,Yellow,0.0,2391.0,0,5,9,choice,After,Object,3,2,-2.0,3,3,0,0,None,False
437,1139,w2991322,Green,1.0,1547.0,0,6,9,choice,After,Object,2,-4,1.0,3,3,2,3,None,False
438,1148,wa79cf20,Red,1.0,1547.0,1,1,9,choice,After,Red,3,2,5.0,3,3,1,1,None,False
439,1149,wa79cf20,Animal,0.0,4422.0,1,2,9,choice,After,Red,3,-2,-1.0,3,3,2,2,None,False
440,1150,wa79cf20,Food,0.0,4291.0,0,3,9,choice,After,Red,1,2,2.0,3,3,1,2,None,False
441,1151,wa79cf20,Object,0.0,4071.0,0,4,9,choice,After,Red,2,1,1.0,3,3,0,0,None,False
442,1152,wa79cf20,Blue,1.0,2723.0,1,5,9,choice,After,Red,2,1,-2.0,3,3,1,1,None,False
443,1153,wa79cf20,Green,0.0,1396.0,1,6,9,choice,After,Red,1,-2,-1.0,3,3,1,1,None,False
444,1162,wb56c2d3,Red,0.0,1401.0,0,1,9,choice,After,Red,2,1,-3.0,1,1,0,0,None,False
445,1163,wb56c2d3,Green,1.0,1480.0,1,2,9,choice,After,Red,1,2,1.0,1,1,0,0,None,False
446,1164,wb56c2d3,Blue,0.0,2085.0,1,3,9,choice,After,Red,3,-1,2.0,1,1,1,1,None,False
447,1165,wb56c2d3,Food,1.0,2262.0,0,4,9,choice,After,Red,3,-1,-2.0,1,1,1,1,None,False
448,1166,wb56c2d3,Scene,1.0,1267.0,0,5,9,choice,After,Red,1,-1,2.0,1,1,0,0,None,False
449,1167,wb56c2d3,Animal,1.0,2543.0,1,6,9,choice,After,Red,2,4,0.0,1,1,0,0,None,False
450,1176,w2bc0b21,Blue,0.0,4487.0,1,1,9,choice,After,Blue,2,-1,0.0,4,4,1,1,None,False
451,1177,w2bc0b21,Object,1.0,2844.0,1,2,9,choice,After,Blue,1,1,1.0,4,4,0,0,None,False
452,1178,w2bc0b21,Yellow,1.0,2481.0,1,3,9,choice,After,Blue,1,2,2.0,4,4,1,1,None,False
453,1179,w2bc0b21,Green,0.0,1611.0,1,4,9,choice,After,Blue,3,-2,-2.0,4,4,2,2,None,False
454,1180,w2bc0b21,Scene,1.0,1929.0,1,5,9,choice,After,Blue,3,2,2.0,4,4,2,2,None,False
455,1181,w2bc0b21,Animal,0.0,1601.0,1,6,9,choice,After,Blue,2,-4,-3.0,4,4,2,2,None,False
456,1190,w5f010fa,Scene,1.0,1858.0,0,1,9,choice,Before,Scene,2,-4,-4.0,6,6,2,2,Scene,True
457,1191,w5f010fa,Animal,1.0,4767.0,1,2,9,choice,Before,Scene,3,2,2.0,6,6,3,3,Scene,False
458,1192,w5f010fa,Red,0.0,2742.0,1,3,9,choice,Before,Scene,1,-1,-1.0,6,6,1,1,Scene,False
459,1193,w5f010fa,Blue,1.0,5767.0,0,4,9,choice,Before,Scene,2,-1,-1.0,6,6,2,2,Scene,False
460,1194,w5f010fa,Yellow,1.0,2968.0,1,5,9,choice,Before,Scene,3,1,1.0,6,6,3,3,Scene,False
461,1195,w5f010fa,Object,0.0,3538.0,0,6,9,choice,Before,Scene,1,1,1.0,6,6,1,1,Scene,False
462,1203,w962c662,Green,1.0,1057.0,0,1,9,choice,Before,Green,3,-2,-1.0,1,1,0,0,Green,True
463,1204,w962c662,Food,1.0,1437.0,0,2,9,choice,Before,Green,3,-1,5.0,1,1,1,1,Green,False
464,1205,w962c662,Red,0.0,1052.0,0,3,9,choice,Before,Green,2,3,2.0,1,1,0,0,Green,False
465,1206,w962c662,Scene,0.0,1525.0,0,4,9,choice,Before,Green,2,3,-1.0,1,1,0,0,Green,False
466,1207,w962c662,Animal,1.0,1614.0,0,5,9,choice,Before,Green,1,-2,-1.0,1,1,0,0,Green,False
467,1208,w962c662,Yellow,1.0,1012.0,0,6,9,choice,Before,Green,1,-1,2.0,1,1,1,2,Green,False
468,1217,w1571d58,Object,1.0,3265.0,0,1,9,choice,Before,Object,3,-1,-1.0,5,5,3,3,Object,True
469,1218,w1571d58,Red,1.0,3608.0,1,2,9,choice,Before,Object,3,1,1.0,5,5,2,2,Object,False
470,1219,w1571d58,Animal,0.0,1665.0,0,3,9,choice,Before,Object,2,3,3.0,5,5,2,3,Object,False
471,1220,w1571d58,Scene,0.0,959.0,1,4,9,choice,Before,Object,1,-2,-2.0,5,5,0,0,Object,False
472,1221,w1571d58,Blue,0.0,1099.0,1,5,9,choice,Before,Object,1,-2,-2.0,5,5,1,2,Object,False
473,1222,w1571d58,Green,0.0,5224.0,0,6,9,choice,Before,Object,2,1,1.0,5,5,2,2,Object,False
474,1231,w36b3d2f,Blue,0.0,843.0,1,1,9,choice,Before,Blue,2,-3,-3.0,5,5,2,2,Blue,True
475,1232,w36b3d2f,Animal,1.0,4025.0,0,2,9,choice,Before,Blue,3,-1,-2.0,5,5,2,2,Blue,False
476,1233,w36b3d2f,Food,1.0,1919.0,1,3,9,choice,Before,Blue,1,2,1.0,5,5,1,2,Blue,False
477,1234,w36b3d2f,Object,1.0,3322.0,0,4,9,choice,Before,Blue,2,-1,0.0,5,5,2,2,Blue,False
478,1235,w36b3d2f,Red,1.0,3449.0,1,5,9,choice,Before,Blue,3,2,1.0,5,5,3,3,Blue,False
479,1236,w36b3d2f,Green,1.0,4777.0,1,6,9,choice,Before,Blue,1,1,1.0,5,5,0,0,Blue,False
480,1245,w3d5caa9,Red,1.0,3401.0,1,1,9,choice,After,Red,1,2,2.0,4,4,1,1,None,False
481,1246,w3d5caa9,Green,0.0,2605.0,1,2,9,choice,After,Red,3,-2,-2.0,4,4,1,1,None,False
482,1247,w3d5caa9,Object,1.0,3655.0,0,3,9,choice,After,Red,2,-1,-1.0,4,4,2,2,None,False
483,1248,w3d5caa9,Food,0.0,4789.0,0,4,9,choice,After,Red,3,2,2.0,4,4,2,2,None,False
484,1249,w3d5caa9,Scene,0.0,3907.0,1,5,9,choice,After,Red,1,-2,-2.0,4,4,0,0,None,False
485,1250,w3d5caa9,Blue,1.0,1575.0,0,6,9,choice,After,Red,2,-1,-1.0,4,4,2,2,None,False
486,1259,wa6daa50,Blue,0.0,1991.0,0,1,9,choice,After,Blue,1,1,1.0,5,5,1,1,None,False
487,1260,wa6daa50,Animal,0.0,2449.0,1,2,9,choice,After,Blue,1,-1,1.0,5,5,1,1,None,False
488,1261,wa6daa50,Scene,1.0,1315.0,1,3,9,choice,After,Blue,2,1,-3.0,5,5,2,2,None,False
489,1262,wa6daa50,Food,1.0,3370.0,1,4,9,choice,After,Blue,3,2,1.0,5,5,2,2,None,False
490,1263,wa6daa50,Green,1.0,3893.0,1,5,9,choice,After,Blue,3,3,-2.0,5,5,2,2,None,False
491,1264,wa6daa50,Red,0.0,883.0,1,6,9,choice,After,Blue,2,-2,0.0,5,5,2,2,None,False
492,1291,w0b3246f,Object,0.0,4209.0,1,1,9,choice,After,Object,2,-1,2.0,5,5,2,2,None,False
493,1292,w0b3246f,Animal,0.0,2691.0,1,2,9,choice,After,Object,1,-1,1.0,5,5,0,0,None,False
494,1293,w0b3246f,Scene,1.0,818.0,1,3,9,choice,After,Object,3,1,5.0,5,5,3,3,None,False
495,1294,w0b3246f,Blue,1.0,4004.0,1,4,9,choice,After,Object,1,2,2.0,5,5,1,2,None,False
496,1295,w0b3246f,Red,0.0,3776.0,1,5,9,choice,After,Object,3,-2,4.0,5,5,2,2,None,False
497,1296,w0b3246f,Yellow,1.0,2551.0,0,6,9,choice,After,Object,2,-1,2.0,5,5,2,2,None,False
498,1305,w0d04a41,Object,0.0,2299.0,1,1,9,choice,Before,Object,3,-1,-1.0,5,5,2,2,Object,True
499,1306,w0d04a41,Blue,1.0,3552.0,0,2,9,choice,Before,Object,3,-1,-4.0,5,5,2,2,Object,False
500,1307,w0d04a41,Red,0.0,2860.0,1,3,9,choice,Before,Object,1,-2,-2.0,5,5,1,2,Object,False
501,1308,w0d04a41,Food,1.0,2641.0,1,4,9,choice,Before,Object,1,2,-1.0,5,5,1,1,Object,False
502,1309,w0d04a41,Animal,0.0,3332.0,1,5,9,choice,Before,Object,2,-1,-1.0,5,5,2,2,Object,False
503,1310,w0d04a41,Green,1.0,4620.0,1,6,9,choice,Before,Object,2,3,3.0,5,5,2,2,Object,False
504,1319,wf63c50b,Food,1.0,2328.0,1,1,9,choice,Before,Food,1,1,1.0,2,2,1,1,Food,True
505,1320,wf63c50b,Object,0.0,1463.0,1,2,9,choice,Before,Food,3,-1,0.0,2,2,1,2,Food,False
506,1321,wf63c50b,Green,1.0,1898.0,1,3,9,choice,Before,Food,3,1,0.0,2,2,2,2,Food,False
507,1322,wf63c50b,Blue,0.0,2322.0,1,4,9,choice,Before,Food,2,-2,-1.0,2,2,0,0,Food,False
508,1323,wf63c50b,Animal,0.0,1478.0,0,5,9,choice,Before,Food,2,1,-1.0,2,2,0,0,Food,False
509,1324,wf63c50b,Yellow,1.0,653.0,1,6,9,choice,Before,Food,1,2,1.0,2,2,0,0,Food,False
510,1333,w3c538ad,Yellow,1.0,2952.0,1,1,9,choice,After,Yellow,2,1,-3.0,4,4,1,1,None,False
511,1334,w3c538ad,Blue,1.0,7023.0,1,2,9,choice,After,Yellow,1,1,1.0,4,4,1,2,None,False
512,1335,w3c538ad,Animal,1.0,4086.0,1,3,9,choice,After,Yellow,2,1,-3.0,4,4,1,1,None,False
513,1336,w3c538ad,Food,1.0,2699.0,0,4,9,choice,After,Yellow,3,-2,1.0,4,4,2,2,None,False
514,1337,w3c538ad,Object,0.0,2080.0,0,5,9,choice,After,Yellow,1,1,2.0,4,4,1,1,None,False
515,1338,w3c538ad,Red,0.0,1084.0,1,6,9,choice,After,Yellow,3,-2,2.0,4,4,2,2,None,False
516,1347,wd47555e,Red,0.0,1109.0,1,1,9,choice,Before,Red,3,-2,-2.0,6,6,3,3,Red,True
517,1348,wd47555e,Object,,,0,2,9,choice,Before,Red,3,4,4.0,6,6,3,3,Red,False
518,1349,wd47555e,Animal,0.0,2970.0,1,3,9,choice,Before,Red,2,-4,-4.0,6,6,2,2,Red,False
519,1350,wd47555e,Scene,0.0,1213.0,1,4,9,choice,Before,Red,1,-2,-2.0,6,6,1,1,Red,False
520,1351,wd47555e,Green,0.0,2600.0,1,5,9,choice,Before,Red,2,-1,-1.0,6,6,2,2,Red,False
521,1352,wd47555e,Blue,1.0,932.0,1,6,9,choice,Before,Red,1,1,1.0,6,6,1,1,Red,False
522,1360,w7232115,Yellow,0.0,3160.0,1,1,9,choice,Before,Yellow,1,-2,-1.0,1,1,0,0,Yellow,True
523,1361,w7232115,Object,1.0,1390.0,0,2,9,choice,Before,Yellow,3,-2,-1.0,1,1,1,1,Yellow,False
524,1362,w7232115,Food,0.0,1774.0,0,3,9,choice,Before,Yellow,1,1,1.0,1,1,0,0,Yellow,False
525,1363,w7232115,Animal,1.0,2507.0,1,4,9,choice,Before,Yellow,2,1,1.0,1,1,0,0,Yellow,False
526,1364,w7232115,Green,1.0,1935.0,1,5,9,choice,Before,Yellow,3,5,5.0,1,1,1,1,Yellow,False
527,1365,w7232115,Blue,0.0,2411.0,1,6,9,choice,Before,Yellow,2,-3,-3.0,1,1,0,0,Yellow,False
528,1378,wf469935,Food,0.0,5981.0,0,1,9,choice,After,Food,3,2,1.0,5,5,2,2,None,False
529,1379,wf469935,Green,,,0,2,9,choice,After,Food,3,-4,-4.0,5,5,3,3,None,False
530,1380,wf469935,Scene,0.0,5336.0,1,3,9,choice,After,Food,2,-1,-3.0,5,5,2,2,None,False
531,1381,wf469935,Animal,1.0,3512.0,0,4,9,choice,After,Food,1,-1,-1.0,5,5,1,1,None,False
532,1382,wf469935,Blue,1.0,5198.0,1,5,9,choice,After,Food,1,1,1.0,5,5,1,1,None,False
533,1383,wf469935,Red,1.0,6408.0,1,6,9,choice,After,Food,2,3,0.0,5,5,1,1,None,False
534,1392,w610dd08,Blue,1.0,3099.0,1,1,9,choice,Before,Blue,2,1,0.0,2,2,0,2,Blue,True
535,1393,w610dd08,Red,1.0,2918.0,1,2,9,choice,Before,Blue,3,3,-2.0,2,2,2,2,Blue,False
536,1394,w610dd08,Animal,0.0,1999.0,0,3,9,choice,Before,Blue,3,2,0.0,2,2,1,2,Blue,False
537,1395,w610dd08,Object,0.0,1704.0,1,4,9,choice,Before,Blue,2,-2,0.0,2,2,0,0,Blue,False
538,1396,w610dd08,Food,1.0,1195.0,1,5,9,choice,Before,Blue,1,2,0.0,2,2,1,3,Blue,False
539,1397,w610dd08,Green,0.0,1225.0,1,6,9,choice,Before,Blue,1,-2,2.0,2,2,0,0,Blue,False
540,1406,wad32437,Yellow,1.0,6092.0,1,1,9,choice,Before,Yellow,3,2,2.0,6,6,3,3,Yellow,True
541,1407,wad32437,Animal,0.0,6884.0,1,2,9,choice,Before,Yellow,3,-1,-1.0,6,6,3,3,Yellow,False
542,1408,wad32437,Scene,1.0,4027.0,1,3,9,choice,Before,Yellow,2,4,4.0,6,6,2,2,Yellow,False
543,1409,wad32437,Red,0.0,3265.0,1,4,9,choice,Before,Yellow,1,-2,-2.0,6,6,1,1,Yellow,False
544,1410,wad32437,Blue,1.0,5496.0,1,5,9,choice,Before,Yellow,2,1,1.0,6,6,2,2,Yellow,False
545,1411,wad32437,Object,0.0,4134.0,1,6,9,choice,Before,Yellow,1,-2,-2.0,6,6,1,1,Yellow,False
546,1420,w409b474,Blue,0.0,2115.0,1,1,9,choice,After,Blue,1,-1,-1.0,4,4,1,1,None,False
547,1421,w409b474,Food,0.0,2067.0,0,2,9,choice,After,Blue,3,2,-3.0,4,4,3,4,None,False
548,1422,w409b474,Green,0.0,1757.0,1,3,9,choice,After,Blue,3,-2,0.0,4,4,1,1,None,False
549,1423,w409b474,Scene,0.0,1586.0,0,4,9,choice,After,Blue,2,1,0.0,4,4,1,1,None,False
550,1424,w409b474,Animal,0.0,1743.0,1,5,9,choice,After,Blue,1,-2,-1.0,4,4,0,0,None,False
551,1425,w409b474,Red,0.0,2726.0,0,6,9,choice,After,Blue,2,4,-3.0,4,4,2,2,None,False
552,1434,wc43fbaa,Object,,,0,1,9,choice,Before,Object,1,2,-1.0,1,1,1,1,Object,True
553,1435,wc43fbaa,Yellow,1.0,3287.0,0,2,9,choice,Before,Object,3,-1,2.0,1,1,1,1,Object,False
554,1436,wc43fbaa,Red,0.0,3551.0,0,3,9,choice,Before,Object,1,1,-1.0,1,1,0,0,Object,False
555,1437,wc43fbaa,Scene,1.0,2932.0,0,4,9,choice,Before,Object,2,-1,3.0,1,1,0,0,Object,False
556,1438,wc43fbaa,Green,1.0,2797.0,0,5,9,choice,Before,Object,2,-1,0.0,1,1,0,0,Object,False
557,1439,wc43fbaa,Food,0.0,3302.0,1,6,9,choice,Before,Object,3,-2,-1.0,1,1,0,0,Object,False
558,1455,w3fc2d2c,Animal,0.0,3673.0,1,1,9,choice,After,Animal,1,-1,-1.0,6,6,1,1,None,False
559,1456,w3fc2d2c,Object,1.0,3911.0,1,2,9,choice,After,Animal,2,1,1.0,6,6,2,2,None,False
560,1457,w3fc2d2c,Yellow,1.0,2543.0,1,3,9,choice,After,Animal,2,1,1.0,6,6,2,2,None,False
561,1458,w3fc2d2c,Blue,1.0,1746.0,1,4,9,choice,After,Animal,1,2,2.0,6,6,1,1,None,False
562,1459,w3fc2d2c,Scene,1.0,4021.0,1,5,9,choice,After,Animal,3,2,2.0,6,6,3,3,None,False
563,1460,w3fc2d2c,Red,0.0,3342.0,1,6,9,choice,After,Animal,3,-1,-1.0,6,6,3,3,None,False
564,1476,we26c55e,Food,1.0,4927.0,0,1,9,choice,Before,Food,3,-1,-2.0,1,1,0,0,Food,True
565,1477,we26c55e,Yellow,1.0,3725.0,0,2,9,choice,Before,Food,3,-2,3.0,1,1,0,0,Food,False
566,1478,we26c55e,Red,0.0,1569.0,0,3,9,choice,Before,Food,1,2,-2.0,1,1,0,0,Food,False
567,1479,we26c55e,Object,0.0,1837.0,1,4,9,choice,Before,Food,1,-2,2.0,1,1,0,2,Food,False
568,1480,we26c55e,Green,1.0,921.0,0,5,9,choice,Before,Food,2,-1,0.0,1,1,1,3,Food,False
569,1481,we26c55e,Scene,1.0,1317.0,1,6,9,choice,Before,Food,2,2,1.0,1,1,1,2,Food,False
570,1494,we90925d,Food,1.0,3529.0,1,1,9,choice,Before,Food,1,1,1.0,2,2,0,1,Food,True
571,1495,we90925d,Scene,1.0,1368.0,0,2,9,choice,Before,Food,3,-2,-1.0,2,2,1,1,Food,False
572,1496,we90925d,Object,0.0,1626.0,1,3,9,choice,Before,Food,2,-1,0.0,2,2,1,2,Food,False
573,1497,we90925d,Green,1.0,1740.0,0,4,9,choice,Before,Food,1,-2,-1.0,2,2,0,1,Food,False
574,1498,we90925d,Blue,0.0,1911.0,1,5,9,choice,Before,Food,2,-1,-1.0,2,2,2,2,Food,False
575,1499,we90925d,Red,0.0,1888.0,0,6,9,choice,Before,Food,3,1,2.0,2,2,0,0,Food,False
576,1508,w63ea659,Scene,0.0,2895.0,1,1,9,choice,After,Scene,1,-1,-2.0,2,2,0,1,None,False
577,1509,w63ea659,Food,0.0,1368.0,1,2,9,choice,After,Scene,3,-2,-5.0,2,2,2,2,None,False
578,1510,w63ea659,Animal,0.0,1063.0,0,3,9,choice,After,Scene,2,3,3.0,2,2,0,0,None,False
579,1511,w63ea659,Yellow,1.0,1013.0,1,4,9,choice,After,Scene,2,4,0.0,2,2,1,2,None,False
580,1512,w63ea659,Red,0.0,1795.0,1,5,9,choice,After,Scene,3,-2,-3.0,2,2,1,2,None,False
581,1513,w63ea659,Green,0.0,2540.0,1,6,9,choice,After,Scene,1,-2,-1.0,2,2,0,0,None,False
582,1522,w31b60c3,Blue,1.0,2349.0,1,1,9,choice,Before,Blue,2,1,1.0,2,2,2,2,Blue,True
583,1523,w31b60c3,Green,0.0,2829.0,1,2,9,choice,Before,Blue,3,-2,0.0,2,2,0,0,Blue,False
584,1524,w31b60c3,Yellow,0.0,331.0,0,3,9,choice,Before,Blue,1,1,-2.0,2,2,0,0,Blue,False
585,1525,w31b60c3,Object,0.0,1716.0,0,4,9,choice,Before,Blue,2,4,4.0,2,2,1,1,Blue,False
586,1526,w31b60c3,Food,0.0,1005.0,1,5,9,choice,Before,Blue,1,-2,-1.0,2,2,0,0,Blue,False
587,1527,w31b60c3,Scene,0.0,3570.0,1,6,9,choice,Before,Blue,3,-2,-4.0,2,2,1,1,Blue,False
588,1547,w5fb19e8,Animal,,,0,1,9,choice,After,Animal,1,1,-1.0,5,5,1,2,None,False
589,1548,w5fb19e8,Red,0.0,4336.0,1,2,9,choice,After,Animal,2,-3,0.0,5,5,1,2,None,False
590,1549,w5fb19e8,Object,1.0,3225.0,1,3,9,choice,After,Animal,3,2,2.0,5,5,3,3,None,False
591,1550,w5fb19e8,Scene,0.0,3118.0,1,4,9,choice,After,Animal,2,-2,1.0,5,5,1,1,None,False
592,1551,w5fb19e8,Yellow,1.0,2397.0,1,5,9,choice,After,Animal,1,2,2.0,5,5,1,1,None,False
593,1552,w5fb19e8,Green,1.0,6042.0,1,6,9,choice,After,Animal,3,2,0.0,5,5,3,3,None,False
594,1561,wdde7ef1,Object,0.0,2562.0,1,1,9,choice,Before,Object,2,-1,-1.0,2,2,1,1,Object,True
595,1562,wdde7ef1,Blue,1.0,3011.0,0,2,9,choice,Before,Object,2,-1,3.0,2,2,1,1,Object,False
596,1563,wdde7ef1,Red,0.0,2204.0,1,3,9,choice,Before,Object,3,-2,-2.0,2,2,1,2,Object,False
597,1564,wdde7ef1,Green,1.0,4269.0,1,4,9,choice,Before,Object,1,2,-2.0,2,2,0,0,Object,False
598,1565,wdde7ef1,Food,1.0,4711.0,0,5,9,choice,Before,Object,1,-2,-2.0,2,2,0,0,Object,False
599,1566,wdde7ef1,Scene,1.0,3802.0,1,6,9,choice,Before,Object,3,2,2.0,2,2,1,1,Object,False
600,1575,w56b42b0,Blue,1.0,2207.0,1,1,9,choice,Before,Blue,2,4,3.0,2,2,0,1,Blue,True
601,1576,w56b42b0,Red,1.0,1616.0,0,2,9,choice,Before,Blue,3,-2,-4.0,2,2,1,2,Blue,False
602,1577,w56b42b0,Food,0.0,1663.0,1,3,9,choice,Before,Blue,1,-2,-1.0,2,2,0,0,Blue,False
603,1578,w56b42b0,Green,1.0,1826.0,0,4,9,choice,Before,Blue,1,-2,-2.0,2,2,1,1,Blue,False
604,1579,w56b42b0,Object,0.0,1579.0,0,5,9,choice,Before,Blue,2,4,1.0,2,2,0,0,Blue,False
605,1580,w56b42b0,Animal,1.0,1991.0,0,6,9,choice,Before,Blue,3,-2,-3.0,2,2,2,2,Blue,False
606,1588,w01da968,Food,0.0,1230.0,1,1,9,choice,Before,Food,2,-2,-3.0,2,2,0,0,Food,True
607,1589,w01da968,Green,1.0,3724.0,1,2,9,choice,Before,Food,2,1,-1.0,2,2,1,1,Food,False
608,1590,w01da968,Red,0.0,3145.0,1,3,9,choice,Before,Food,1,-2,-2.0,2,2,0,0,Food,False
609,1591,w01da968,Scene,1.0,2874.0,1,4,9,choice,Before,Food,3,1,1.0,2,2,2,2,Food,False
610,1592,w01da968,Object,1.0,2050.0,1,5,9,choice,Before,Food,1,1,1.0,2,2,0,0,Food,False
611,1593,w01da968,Yellow,1.0,2026.0,1,6,9,choice,Before,Food,3,1,2.0,2,2,1,1,Food,False
612,1610,wc8b5d36,Blue,0.0,1951.0,1,1,9,choice,After,Blue,1,-1,-1.0,4,4,0,0,None,False
613,1611,wc8b5d36,Object,0.0,1843.0,0,2,9,choice,After,Blue,1,2,1.0,4,4,1,1,None,False
614,1612,wc8b5d36,Red,1.0,3631.0,0,3,9,choice,After,Blue,2,-1,1.0,4,4,1,2,None,False
615,1613,wc8b5d36,Scene,1.0,934.0,1,4,9,choice,After,Blue,2,3,4.0,4,4,2,2,None,False
616,1614,wc8b5d36,Animal,0.0,2080.0,1,5,9,choice,After,Blue,3,-5,-1.0,4,4,1,1,None,False
617,1615,wc8b5d36,Green,1.0,1221.0,1,6,9,choice,After,Blue,3,2,4.0,4,4,3,3,None,False
618,1635,wfd8b568,Animal,0.0,2753.0,1,1,9,choice,After,Animal,2,-1,1.0,4,4,1,1,None,False
619,1636,wfd8b568,Food,1.0,2065.0,0,2,9,choice,After,Animal,3,-3,2.0,4,4,3,3,None,False
620,1637,wfd8b568,Scene,1.0,3502.0,1,3,9,choice,After,Animal,1,2,-1.0,4,4,0,1,None,False
621,1638,wfd8b568,Red,1.0,1399.0,1,4,9,choice,After,Animal,3,1,3.0,4,4,1,1,None,False
622,1639,wfd8b568,Green,1.0,3813.0,1,5,9,choice,After,Animal,1,1,-1.0,4,4,1,2,None,False
623,1640,wfd8b568,Yellow,0.0,1747.0,1,6,9,choice,After,Animal,2,-4,0.0,4,4,2,3,None,False
624,1663,wfbb00e1,Animal,1.0,2234.0,1,1,9,choice,After,Animal,1,1,-2.0,2,2,0,1,None,False
625,1664,wfbb00e1,Yellow,0.0,1034.0,0,2,9,choice,After,Animal,3,1,-4.0,2,2,1,2,None,False
626,1665,wfbb00e1,Green,1.0,1090.0,0,3,9,choice,After,Animal,2,-1,-1.0,2,2,1,2,None,False
627,1666,wfbb00e1,Scene,1.0,1466.0,1,4,9,choice,After,Animal,3,1,-1.0,2,2,1,1,None,False
628,1667,wfbb00e1,Blue,1.0,951.0,0,5,9,choice,After,Animal,1,-2,2.0,2,2,0,1,None,False
629,1668,wfbb00e1,Food,0.0,1827.0,1,6,9,choice,After,Animal,2,-4,0.0,2,2,1,2,None,False
630,1678,wea09e5e,Blue,1.0,2844.0,1,1,9,choice,After,Blue,1,2,1.0,5,5,0,0,None,False
631,1679,wea09e5e,Object,1.0,3098.0,0,2,9,choice,After,Blue,1,-2,-2.0,5,5,1,2,None,False
632,1680,wea09e5e,Animal,0.0,2140.0,0,3,9,choice,After,Blue,3,5,4.0,5,5,2,2,None,False
633,1681,wea09e5e,Scene,1.0,1341.0,0,4,9,choice,After,Blue,2,-2,-2.0,5,5,2,2,None,False
634,1682,wea09e5e,Green,0.0,1727.0,1,5,9,choice,After,Blue,3,-2,-2.0,5,5,3,3,None,False
635,1683,wea09e5e,Red,0.0,1787.0,0,6,9,choice,After,Blue,2,1,1.0,5,5,2,3,None,False
