,index,wid,option,choice,rt,correct,trial_number,game,phase,n_true_memories,n_considered,value,remembered_value,n_total_memories_shown,n_total_memories,n_remembered_shown,n_remembered,recalled_mem_value,considered_value,considered_mem_value,considered_recalled_mem_value
0,1,w2d80146,Yellow,0.0,5130.0,1,2,1,choice,2,1,-4,13.0,5,5,1,1,5.0,15,5.0,5.0
1,2,w2d80146,Object,0.0,2796.0,1,3,1,choice,1,2,-7,-7.0,5,5,1,2,-7.0,-14,-7.0,-7.0
2,3,w2d80146,Scene,1.0,1079.0,1,4,1,choice,2,2,2,13.0,5,5,2,2,13.0,9,13.0,13.0
3,4,w2d80146,Blue,1.0,2536.0,0,5,1,choice,3,6,-2,-6.0,5,5,3,3,-6.0,-4,-9.0,-9.0
4,5,w2d80146,Animal,1.0,3475.0,1,6,1,choice,3,2,5,-7.0,5,5,2,2,-15.0,28,-15.0,-15.0
5,7,w2d80146,Object,1.0,2951.0,1,2,2,choice,3,1,3,-7.0,4,4,3,3,-7.0,2,-6.0,-6.0
6,8,w2d80146,Red,0.0,2417.0,1,3,2,choice,2,2,-5,-3.0,4,4,2,2,-3.0,-2,-3.0,-3.0
7,9,w2d80146,Blue,0.0,2888.0,1,4,2,choice,3,2,-1,-4.0,4,4,1,1,-6.0,6,-2.0,-6.0
8,11,w2d80146,Scene,1.0,2522.0,0,6,2,choice,2,1,-1,8.0,4,4,1,1,4.0,2,4.0,4.0
9,12,w2d80146,Yellow,1.0,1367.0,0,1,3,choice,3,2,-1,7.0,5,5,2,2,4.0,6,7.0,7.0
10,14,w2d80146,Green,1.0,2151.0,1,3,3,choice,2,2,1,13.0,5,5,2,2,13.0,-7,13.0,13.0
11,16,w2d80146,Red,1.0,3084.0,1,5,3,choice,1,1,7,4.0,5,5,1,1,4.0,14,4.0,4.0
12,17,w2d80146,Scene,1.0,1877.0,1,6,3,choice,3,3,3,15.0,5,5,3,3,15.0,6,15.0,15.0
13,18,w2d80146,Object,1.0,2800.0,1,1,4,choice,2,1,5,14.0,1,1,1,1,9.0,-2,9.0,9.0
14,21,w2d80146,Green,1.0,2773.0,1,4,4,choice,2,2,8,16.0,1,1,1,2,9.0,-2,9.0,9.0
15,24,w2d80146,Green,1.0,1240.0,1,1,5,choice,3,2,1,4.0,3,3,1,2,-4.0,-4,-1.0,-4.0
16,26,w2d80146,Animal,1.0,3485.0,0,3,5,choice,3,2,-5,8.0,3,3,2,2,5.0,6,12.0,9.0
17,28,w2d80146,Scene,0.0,2464.0,0,5,5,choice,1,1,4,-4.0,3,3,1,1,-4.0,8,-4.0,-4.0
18,29,w2d80146,Yellow,1.0,1736.0,1,6,5,choice,2,1,7,7.0,3,3,1,1,9.0,18,9.0,9.0
19,33,w7a04fdc,Red,1.0,1035.0,0,4,2,choice,2,3,-2,0.0,2,2,1,1,0.0,-4,4.0,0.0
20,34,w7a04fdc,Food,1.0,402.0,0,5,2,choice,3,5,-3,0.0,2,2,1,1,0.0,-15,2.0,0.0
21,36,w7a04fdc,Yellow,1.0,2977.0,1,1,3,choice,3,1,3,0.0,1,1,1,1,0.0,-4,1.0,1.0
22,44,w7a04fdc,Food,1.0,550.0,0,3,4,choice,3,1,-1,0.0,2,2,1,1,0.0,-4,2.0,2.0
23,47,w7a04fdc,Red,0.0,503.0,1,6,4,choice,1,1,-2,0.0,2,2,1,1,0.0,-4,2.0,2.0
24,78,wca8e71a,Object,,,0,1,1,choice,3,1,-4,-6.0,6,6,3,3,-6.0,1,-8.0,-8.0
25,79,wca8e71a,Blue,1.0,1851.0,1,2,1,choice,2,1,3,-3.0,6,6,2,2,-3.0,12,5.0,5.0
26,80,wca8e71a,Yellow,0.0,1548.0,1,3,1,choice,3,1,-1,-3.0,6,6,3,3,-3.0,0,-4.0,-4.0
27,81,wca8e71a,Red,1.0,795.0,1,4,1,choice,1,1,7,7.0,6,6,1,1,7.0,7,7.0,7.0
28,82,wca8e71a,Scene,1.0,2715.0,1,5,1,choice,2,2,5,1.0,6,6,2,2,1.0,10,1.0,1.0
29,83,wca8e71a,Animal,0.0,1786.0,0,6,1,choice,1,1,8,6.0,6,6,1,1,6.0,8,6.0,6.0
30,84,wca8e71a,Scene,1.0,1267.0,1,1,2,choice,3,3,2,4.0,5,5,3,4,4.0,4,4.0,4.0
31,85,wca8e71a,Yellow,0.0,953.0,1,2,2,choice,1,1,-8,-7.0,5,5,1,1,-7.0,-16,-7.0,-7.0
32,86,wca8e71a,Red,0.0,625.0,0,3,2,choice,3,2,2,-8.0,5,5,2,2,-3.0,-13,-3.0,-3.0
33,87,wca8e71a,Food,0.0,1342.0,1,4,2,choice,1,1,-7,-8.0,5,5,1,1,-8.0,-21,-8.0,-8.0
34,88,wca8e71a,Green,1.0,2096.0,1,5,2,choice,2,2,3,3.0,5,5,2,2,3.0,9,3.0,3.0
35,89,wca8e71a,Object,0.0,1565.0,0,6,2,choice,2,1,2,-8.0,5,5,1,1,-3.0,-3,-8.0,-8.0
36,91,wca8e71a,Food,0.0,899.0,1,2,3,choice,3,2,-2,0.0,5,5,2,2,3.0,2,3.0,3.0
37,92,wca8e71a,Animal,1.0,947.0,0,3,3,choice,2,2,-7,5.0,5,5,2,2,5.0,-16,4.0,4.0
38,93,wca8e71a,Blue,0.0,1100.0,1,4,3,choice,2,1,-3,-3.0,5,5,2,2,-3.0,-8,-4.0,-4.0
39,94,wca8e71a,Scene,1.0,2020.0,1,5,3,choice,1,1,6,5.0,5,5,1,2,5.0,12,5.0,5.0
40,95,wca8e71a,Red,1.0,588.0,1,6,3,choice,3,3,3,16.0,5,5,3,3,16.0,6,16.0,16.0
41,96,wca8e71a,Object,1.0,1749.0,0,1,4,choice,2,2,-2,-6.0,6,6,2,2,-6.0,-4,-6.0,-6.0
42,97,wca8e71a,Blue,0.0,1811.0,1,2,4,choice,2,1,-4,-4.0,6,6,2,2,-4.0,6,-7.0,-7.0
43,98,wca8e71a,Yellow,0.0,2078.0,1,3,4,choice,3,2,-1,5.0,6,6,3,3,5.0,0,7.0,7.0
44,99,wca8e71a,Animal,1.0,1903.0,0,4,4,choice,3,2,-1,-3.0,6,6,3,3,-3.0,14,-6.0,-6.0
45,100,wca8e71a,Green,0.0,939.0,0,5,4,choice,1,1,8,-4.0,6,6,1,1,-4.0,16,-4.0,-4.0
46,101,wca8e71a,Food,1.0,1607.0,1,6,4,choice,1,1,6,6.0,6,6,1,1,6.0,12,6.0,6.0
47,102,wca8e71a,Animal,0.0,2031.0,1,1,5,choice,1,1,-9,-9.0,4,4,1,1,-9.0,-18,-9.0,-9.0
48,103,wca8e71a,Green,0.0,725.0,0,2,5,choice,3,2,3,-4.0,4,4,2,2,-1.0,-2,-1.0,-1.0
49,104,wca8e71a,Blue,0.0,1880.0,0,3,5,choice,2,1,2,0.0,4,4,2,2,0.0,-1,-3.0,-3.0
50,105,wca8e71a,Scene,1.0,2076.0,1,4,5,choice,2,2,5,5.0,4,4,2,4,5.0,10,5.0,5.0
51,107,wca8e71a,Food,0.0,1605.0,0,6,5,choice,3,1,3,-6.0,4,4,1,1,3.0,5,3.0,3.0
52,108,wbcfaf6a,Red,,,0,1,1,choice,2,3,-3,-5.0,4,4,2,2,-5.0,2,-3.0,-3.0
53,109,wbcfaf6a,Animal,1.0,3976.0,0,2,1,choice,3,4,-5,11.0,4,4,2,2,7.0,-2,11.0,7.0
54,110,wbcfaf6a,Green,0.0,3081.0,0,3,1,choice,1,3,9,9.0,4,4,1,2,9.0,18,9.0,9.0
55,111,wbcfaf6a,Blue,1.0,4544.0,0,4,1,choice,3,3,-1,15.0,4,4,1,1,7.0,-2,15.0,7.0
56,112,wbcfaf6a,Scene,0.0,3289.0,0,5,1,choice,2,3,3,1.0,4,4,1,1,-3.0,6,1.0,-3.0
57,113,wbcfaf6a,Food,1.0,3112.0,1,6,1,choice,1,4,7,7.0,4,4,1,1,7.0,14,7.0,7.0
58,114,wbcfaf6a,Red,1.0,5669.0,1,1,2,choice,1,2,3,3.0,4,4,1,2,3.0,6,3.0,3.0
59,115,wbcfaf6a,Yellow,0.0,5806.0,1,2,2,choice,3,2,-1,-14.0,4,4,2,2,-14.0,3,-8.0,-8.0
60,116,wbcfaf6a,Animal,1.0,4361.0,0,3,2,choice,1,2,-2,-2.0,4,4,1,2,-2.0,-4,-2.0,-2.0
61,117,wbcfaf6a,Scene,0.0,2153.0,1,4,2,choice,2,2,-3,-4.0,4,4,1,1,-12.0,3,-4.0,-6.0
62,118,wbcfaf6a,Food,1.0,2880.0,1,5,2,choice,3,2,2,1.0,4,4,1,1,3.0,1,-3.0,3.0
63,121,wbcfaf6a,Blue,0.0,3146.0,1,2,3,choice,1,2,-6,6.0,3,3,1,2,6.0,-12,6.0,6.0
64,123,wbcfaf6a,Red,1.0,3001.0,1,4,3,choice,3,2,1,-6.0,3,3,1,2,-6.0,4,-6.0,-6.0
65,124,wbcfaf6a,Green,1.0,2423.0,1,5,3,choice,2,2,2,-1.0,3,3,1,1,4.0,2,-1.0,4.0
66,125,wbcfaf6a,Animal,0.0,1541.0,0,6,3,choice,3,2,1,-5.0,3,3,2,2,0.0,-3,0.0,0.0
67,126,wbcfaf6a,Yellow,1.0,2519.0,1,1,4,choice,3,2,2,7.0,4,4,2,2,5.0,1,5.0,5.0
68,127,wbcfaf6a,Animal,0.0,6053.0,0,2,4,choice,1,2,5,3.0,4,4,1,2,3.0,15,3.0,3.0
69,128,wbcfaf6a,Object,0.0,1942.0,1,3,4,choice,3,2,-1,-7.0,4,4,2,2,-9.0,-10,-9.0,-9.0
70,129,wbcfaf6a,Food,1.0,2208.0,0,4,4,choice,2,2,-6,3.0,4,4,1,1,2.0,-14,5.0,5.0
71,130,wbcfaf6a,Green,0.0,5605.0,1,5,4,choice,2,2,-2,-4.0,4,4,1,2,-5.0,-6,-5.0,-5.0
72,131,wbcfaf6a,Blue,0.0,4257.0,1,6,4,choice,1,1,-2,-4.0,4,4,1,1,-4.0,-4,-4.0,-4.0
73,132,wbcfaf6a,Object,,,0,1,5,choice,3,2,-4,4.0,4,4,1,1,6.0,6,2.0,6.0
74,133,wbcfaf6a,Scene,1.0,2113.0,1,2,5,choice,1,1,8,6.0,4,4,1,1,6.0,16,6.0,6.0
75,134,wbcfaf6a,Blue,1.0,2248.0,0,3,5,choice,3,3,-2,4.0,4,4,2,2,8.0,-4,4.0,8.0
76,135,wbcfaf6a,Food,0.0,4092.0,1,4,5,choice,2,3,-1,5.0,4,4,2,3,5.0,-2,5.0,5.0
77,136,wbcfaf6a,Yellow,1.0,2673.0,1,5,5,choice,1,2,9,6.0,4,4,1,2,6.0,18,6.0,6.0
78,137,wbcfaf6a,Red,1.0,3644.0,0,6,5,choice,2,2,-4,5.0,4,4,1,2,3.0,6,3.0,3.0
79,138,w27e5a42,Blue,,,0,1,1,choice,2,1,2,5.0,4,4,1,1,9.0,18,9.0,9.0
80,139,w27e5a42,Red,0.0,2880.0,1,2,1,choice,3,3,-2,-2.0,4,4,3,3,-2.0,1,-2.0,-2.0
81,140,w27e5a42,Scene,0.0,2681.0,0,3,1,choice,2,1,4,4.0,4,4,2,3,4.0,13,9.0,9.0
82,141,w27e5a42,Animal,0.0,3293.0,1,4,1,choice,1,2,-3,-3.0,4,4,1,1,-3.0,-6,-3.0,-3.0
83,142,w27e5a42,Food,1.0,3717.0,1,5,1,choice,3,1,3,-1.0,4,4,1,2,6.0,12,6.0,6.0
84,144,w27e5a42,Red,0.0,4401.0,0,1,2,choice,1,1,5,5.0,5,5,1,1,5.0,10,5.0,5.0
85,145,w27e5a42,Blue,0.0,2207.0,1,2,2,choice,3,2,-2,-2.0,5,5,3,3,-2.0,-11,-9.0,-9.0
86,146,w27e5a42,Food,1.0,3306.0,1,3,2,choice,3,3,4,7.0,5,5,2,2,12.0,1,7.0,12.0
87,147,w27e5a42,Object,0.0,2373.0,1,4,2,choice,1,1,-3,-3.0,5,5,1,1,-3.0,-6,-3.0,-3.0
88,148,w27e5a42,Scene,0.0,4088.0,1,5,2,choice,2,2,-5,-5.0,5,5,2,2,-5.0,-10,-5.0,-5.0
89,149,w27e5a42,Green,1.0,4695.0,0,6,2,choice,2,2,-7,-4.0,5,5,1,1,1.0,-14,-4.0,1.0
90,150,w27e5a42,Animal,1.0,3745.0,0,1,3,choice,3,3,-2,-2.0,5,5,3,3,-2.0,-4,-2.0,-2.0
91,151,w27e5a42,Red,1.0,2924.0,0,2,3,choice,2,2,-4,8.0,5,5,2,2,8.0,-10,8.0,8.0
92,153,w27e5a42,Yellow,1.0,1519.0,1,4,3,choice,3,1,2,-15.0,5,5,2,2,-11.0,5,-7.0,-7.0
93,154,w27e5a42,Scene,1.0,1960.0,0,5,3,choice,2,1,-7,1.0,5,5,2,2,1.0,-7,-4.0,-4.0
94,155,w27e5a42,Blue,0.0,4363.0,1,6,3,choice,1,1,-3,2.0,5,5,1,1,2.0,-6,2.0,2.0
95,156,w27e5a42,Scene,0.0,3378.0,0,1,4,choice,2,1,3,-4.0,4,4,1,1,-2.0,-4,-2.0,-2.0
96,157,w27e5a42,Animal,0.0,6360.0,1,2,4,choice,1,1,-9,2.0,4,4,1,1,2.0,-18,2.0,2.0
97,159,w27e5a42,Green,1.0,2374.0,1,4,4,choice,3,2,3,7.0,4,4,2,2,9.0,-4,9.0,9.0
98,160,w27e5a42,Object,1.0,2763.0,1,5,4,choice,3,3,5,9.0,4,4,2,2,14.0,10,9.0,14.0
99,161,w27e5a42,Yellow,1.0,770.0,1,6,4,choice,2,2,4,5.0,4,4,2,2,5.0,8,5.0,5.0
100,162,w27e5a42,Green,1.0,4575.0,1,1,5,choice,1,1,7,5.0,2,2,1,1,5.0,14,5.0,5.0
101,166,w27e5a42,Object,1.0,1342.0,1,5,5,choice,3,2,4,12.0,2,2,2,2,12.0,26,12.0,12.0
102,167,w27e5a42,Yellow,0.0,738.0,1,6,5,choice,3,1,-1,0.0,2,2,1,1,7.0,12,7.0,7.0
103,169,w60e592a,Blue,1.0,1151.0,1,2,1,choice,2,4,3,5.0,2,2,1,3,8.0,6,5.0,8.0
104,171,w60e592a,Food,0.0,4478.0,1,4,1,choice,3,4,-2,3.0,2,2,2,2,6.0,-4,3.0,6.0
105,173,w60e592a,Red,0.0,2055.0,1,6,1,choice,1,4,-3,-2.0,2,2,1,3,-2.0,-6,-2.0,-2.0
106,174,w60e592a,Yellow,1.0,2405.0,0,1,2,choice,3,4,-2,1.0,5,5,2,2,4.0,-4,1.0,4.0
107,175,w60e592a,Animal,1.0,3714.0,1,2,2,choice,2,4,3,2.0,5,5,1,1,5.0,6,2.0,5.0
108,176,w60e592a,Object,0.0,2649.0,0,3,2,choice,3,4,4,-1.0,5,5,3,3,-1.0,8,-1.0,-1.0
109,177,w60e592a,Food,0.0,1665.0,1,4,2,choice,1,4,-3,-3.0,5,5,1,2,-3.0,-6,-3.0,-3.0
110,178,w60e592a,Green,0.0,3997.0,0,5,2,choice,2,4,1,0.0,5,5,2,2,0.0,2,0.0,0.0
111,179,w60e592a,Blue,1.0,3137.0,1,6,2,choice,1,4,5,-3.0,5,5,1,2,-3.0,10,-3.0,-3.0
112,181,w60e592a,Yellow,0.0,3649.0,1,2,3,choice,2,4,-2,-3.0,3,3,2,3,-3.0,-4,-3.0,-3.0
113,182,w60e592a,Animal,1.0,979.0,1,3,3,choice,2,4,3,1.0,3,3,1,2,5.0,6,1.0,5.0
114,184,w60e592a,Scene,0.0,955.0,0,5,3,choice,3,4,2,-11.0,3,3,2,3,-15.0,4,-11.0,-15.0
115,185,w60e592a,Green,0.0,2456.0,0,6,3,choice,1,4,6,-7.0,3,3,1,2,-7.0,12,-7.0,-7.0
116,186,w60e592a,Green,1.0,1675.0,1,1,4,choice,3,4,2,6.0,3,3,2,2,10.0,4,6.0,10.0
117,187,w60e592a,Animal,0.0,1549.0,0,2,4,choice,1,4,4,5.0,3,3,1,2,5.0,8,5.0,5.0
118,188,w60e592a,Scene,1.0,1269.0,1,3,4,choice,2,4,2,2.0,3,3,1,2,5.0,4,2.0,5.0
119,189,w60e592a,Blue,0.0,1818.0,1,4,4,choice,1,4,-6,-7.0,3,3,1,1,-7.0,-12,-7.0,-7.0
120,191,w60e592a,Food,0.0,2983.0,1,6,4,choice,3,4,-4,-6.0,3,3,1,1,-7.0,-8,-6.0,-7.0
121,192,w60e592a,Scene,0.0,2183.0,1,1,5,choice,1,4,-3,-3.0,4,4,1,2,-3.0,-6,-3.0,-3.0
122,193,w60e592a,Blue,1.0,1828.0,0,2,5,choice,3,4,-1,6.0,4,4,1,1,-3.0,-2,6.0,-3.0
123,194,w60e592a,Green,1.0,2136.0,1,3,5,choice,1,4,5,-3.0,4,4,1,3,-3.0,10,-3.0,-3.0
124,195,w60e592a,Object,1.0,1605.0,1,4,5,choice,3,4,4,-1.0,4,4,2,2,-6.0,8,-1.0,-6.0
125,196,w60e592a,Red,1.0,2166.0,1,5,5,choice,2,4,2,1.0,4,4,2,2,1.0,4,1.0,1.0
126,197,w60e592a,Animal,0.0,1965.0,0,6,5,choice,2,4,5,8.0,4,4,1,2,4.0,10,8.0,4.0
127,199,wef591ef,Blue,0.0,2124.0,1,2,1,choice,1,1,-7,-7.0,1,1,1,2,-7.0,-14,-7.0,-7.0
128,201,wef591ef,Animal,1.0,3943.0,1,4,1,choice,3,3,3,3.0,1,1,1,2,-7.0,6,3.0,-7.0
129,204,wef591ef,Animal,1.0,2933.0,1,1,2,choice,1,1,8,8.0,6,6,1,1,8.0,16,8.0,8.0
130,205,wef591ef,Scene,1.0,2790.0,1,2,2,choice,2,2,2,2.0,6,6,2,2,2.0,4,2.0,2.0
131,206,wef591ef,Green,1.0,3174.0,1,3,2,choice,1,1,7,7.0,6,6,1,1,7.0,14,7.0,7.0
132,207,wef591ef,Yellow,1.0,948.0,1,4,2,choice,2,2,3,3.0,6,6,2,2,3.0,6,3.0,3.0
133,208,wef591ef,Red,0.0,2049.0,1,5,2,choice,3,3,-1,-1.0,6,6,3,3,-1.0,-2,-1.0,-1.0
134,209,wef591ef,Food,1.0,2480.0,0,6,2,choice,3,3,-1,-1.0,6,6,3,3,-1.0,-2,-1.0,-1.0
135,210,wef591ef,Yellow,0.0,3614.0,1,1,3,choice,2,2,-6,-6.0,6,6,2,2,-6.0,-12,-6.0,-6.0
136,211,wef591ef,Animal,0.0,3304.0,1,2,3,choice,2,2,-2,-2.0,6,6,2,2,-2.0,-4,-2.0,-2.0
137,212,wef591ef,Food,1.0,5027.0,1,3,3,choice,3,3,1,1.0,6,6,3,3,1.0,2,1.0,1.0
138,213,wef591ef,Green,0.0,4169.0,1,4,3,choice,3,3,-3,-3.0,6,6,3,3,-3.0,-6,-3.0,-3.0
139,214,wef591ef,Blue,1.0,2017.0,1,5,3,choice,1,1,3,3.0,6,6,1,1,3.0,6,3.0,3.0
140,215,wef591ef,Object,0.0,3306.0,1,6,3,choice,1,1,-5,-5.0,6,6,1,1,-5.0,-10,-5.0,-5.0
141,216,wef591ef,Object,,,0,1,4,choice,3,3,1,1.0,6,6,3,3,1.0,2,1.0,1.0
142,217,wef591ef,Blue,0.0,3475.0,1,2,4,choice,3,3,-1,-1.0,6,6,3,3,-1.0,-2,-1.0,-1.0
143,218,wef591ef,Food,0.0,3203.0,1,3,4,choice,1,1,-5,-5.0,6,6,1,1,-5.0,-10,-5.0,-5.0
144,219,wef591ef,Yellow,1.0,1475.0,1,4,4,choice,1,1,4,4.0,6,6,1,1,4.0,8,4.0,4.0
145,220,wef591ef,Scene,1.0,2465.0,1,5,4,choice,2,2,1,0.0,6,6,2,2,0.0,2,0.0,0.0
146,221,wef591ef,Red,0.0,2275.0,1,6,4,choice,2,2,-6,-7.0,6,6,2,2,-7.0,-12,-7.0,-7.0
147,222,wef591ef,Animal,1.0,1915.0,1,1,5,choice,2,1,3,3.0,6,6,2,2,3.0,9,6.0,6.0
148,223,wef591ef,Object,1.0,4352.0,0,2,5,choice,3,3,-6,-6.0,6,6,3,3,-6.0,-12,-6.0,-6.0
149,224,wef591ef,Green,0.0,1728.0,1,3,5,choice,1,1,-7,-7.0,6,6,1,1,-7.0,-14,-7.0,-7.0
150,225,wef591ef,Food,1.0,3081.0,1,4,5,choice,1,1,4,4.0,6,6,1,1,4.0,8,4.0,4.0
151,226,wef591ef,Red,1.0,3499.0,1,5,5,choice,3,3,2,2.0,6,6,3,3,2.0,4,2.0,2.0
152,227,wef591ef,Blue,1.0,3089.0,1,6,5,choice,2,2,6,6.0,6,6,2,2,6.0,15,6.0,6.0
153,228,wb51887d,Green,0.0,2854.0,1,1,1,choice,1,1,-2,5.0,4,4,1,1,5.0,-4,5.0,5.0
154,229,wb51887d,Scene,1.0,3343.0,1,2,1,choice,2,2,4,-3.0,4,4,1,1,-3.0,8,-3.0,-3.0
155,230,wb51887d,Red,1.0,5695.0,1,3,1,choice,2,1,6,-5.0,4,4,1,1,-3.0,-2,-3.0,-3.0
156,231,wb51887d,Blue,1.0,1425.0,1,4,1,choice,3,2,3,5.0,4,4,2,2,5.0,12,0.0,0.0
157,232,wb51887d,Food,0.0,1431.0,0,5,1,choice,1,1,4,0.0,4,4,1,1,0.0,8,0.0,0.0
158,233,wb51887d,Animal,0.0,2029.0,1,6,1,choice,3,2,-1,8.0,4,4,2,2,10.0,-10,10.0,10.0
159,234,wb51887d,Green,1.0,1257.0,0,1,3,choice,3,1,-1,-2.0,3,3,1,1,5.0,-6,5.0,5.0
160,235,wb51887d,Scene,1.0,2755.0,1,2,3,choice,2,1,8,-14.0,3,3,1,2,-7.0,-2,-7.0,-7.0
161,236,wb51887d,Red,0.0,2954.0,0,3,3,choice,2,2,5,-9.0,3,3,2,2,-9.0,10,-9.0,-9.0
162,238,wb51887d,Object,1.0,1144.0,0,5,3,choice,1,1,-3,5.0,3,3,1,1,5.0,-6,5.0,5.0
163,239,wb51887d,Food,,,0,6,3,choice,3,1,4,-2.0,3,3,1,1,-2.0,12,-2.0,-2.0
164,240,wb51887d,Blue,1.0,2860.0,1,1,4,choice,3,2,2,8.0,4,4,2,2,8.0,22,8.0,8.0
165,241,wb51887d,Yellow,0.0,3285.0,1,2,4,choice,1,1,-6,0.0,4,4,1,1,0.0,-12,0.0,0.0
166,242,wb51887d,Scene,1.0,1479.0,1,3,4,choice,1,1,3,0.0,4,4,1,1,0.0,6,0.0,0.0
167,243,wb51887d,Food,1.0,1682.0,0,4,4,choice,3,3,-3,8.0,4,4,3,3,8.0,-6,8.0,8.0
168,244,wb51887d,Green,1.0,1586.0,0,5,4,choice,2,1,-1,0.0,4,4,1,1,0.0,-10,0.0,0.0
169,246,wb51887d,Green,0.0,4565.0,1,1,5,choice,2,1,-4,2.0,6,6,2,2,2.0,-10,0.0,0.0
170,247,wb51887d,Yellow,1.0,3230.0,1,2,5,choice,3,3,1,2.0,6,6,3,3,2.0,2,2.0,2.0
171,248,wb51887d,Blue,0.0,2149.0,1,3,5,choice,1,1,-2,-2.0,6,6,1,1,-2.0,-4,-2.0,-2.0
172,249,wb51887d,Scene,1.0,3102.0,0,4,5,choice,2,1,-7,1.0,6,6,2,2,1.0,-16,-1.0,-1.0
173,250,wb51887d,Animal,0.0,3689.0,1,5,5,choice,3,3,-1,1.0,6,6,3,3,1.0,-2,1.0,1.0
174,251,wb51887d,Object,1.0,3434.0,1,6,5,choice,1,1,3,0.0,6,6,1,1,0.0,6,0.0,0.0
175,282,w58111ca,Blue,,,0,1,1,choice,1,2,3,5.0,5,5,1,1,5.0,6,5.0,5.0
176,284,w58111ca,Food,1.0,1721.0,1,3,1,choice,3,3,2,4.0,5,5,3,4,4.0,4,4.0,4.0
177,285,w58111ca,Red,1.0,2519.0,0,4,1,choice,2,2,-5,-14.0,5,5,1,1,-7.0,-12,-14.0,-7.0
178,286,w58111ca,Yellow,1.0,1934.0,0,5,1,choice,3,2,-3,9.0,5,5,3,3,9.0,3,14.0,14.0
179,287,w58111ca,Scene,0.0,3095.0,1,6,1,choice,2,1,-3,-12.0,5,5,1,1,-5.0,-3,-5.0,-5.0
180,288,w58111ca,Object,1.0,2678.0,0,1,2,choice,2,1,-5,-5.0,3,3,1,1,3.0,6,3.0,3.0
181,289,w58111ca,Green,1.0,1948.0,1,2,2,choice,3,1,1,11.0,3,3,1,1,3.0,6,3.0,3.0
182,290,w58111ca,Food,1.0,2994.0,0,3,2,choice,3,1,-3,2.0,3,3,2,3,-3.0,8,-6.0,-6.0
183,291,w58111ca,Yellow,0.0,2182.0,1,4,2,choice,2,1,-1,-14.0,3,3,1,2,-6.0,14,-6.0,-6.0
184,293,w58111ca,Blue,0.0,1230.0,1,6,2,choice,1,1,-6,3.0,3,3,1,2,3.0,-6,3.0,3.0
185,294,w58111ca,Yellow,1.0,3699.0,1,1,3,choice,1,1,7,6.0,5,5,1,1,6.0,14,6.0,6.0
186,295,w58111ca,Blue,1.0,730.0,0,2,3,choice,3,3,-5,-3.0,5,5,3,3,-3.0,-10,-3.0,-3.0
187,296,w58111ca,Red,1.0,1833.0,0,3,3,choice,2,1,-1,-1.0,5,5,1,1,-4.0,-8,-4.0,-4.0
188,297,w58111ca,Scene,0.0,2249.0,1,4,3,choice,1,1,-6,-5.0,5,5,1,1,-5.0,-12,-5.0,-5.0
189,298,w58111ca,Object,0.0,3410.0,0,5,3,choice,2,2,5,5.0,5,5,2,2,5.0,10,5.0,5.0
190,299,w58111ca,Animal,1.0,1805.0,1,6,3,choice,3,2,2,2.0,5,5,2,3,-1.0,-2,-1.0,-1.0
191,302,w58111ca,Green,0.0,5116.0,1,3,4,choice,1,1,-8,-5.0,3,3,1,2,-5.0,-16,-5.0,-5.0
192,305,w58111ca,Object,0.0,107.0,0,6,4,choice,3,1,5,-9.0,3,3,1,1,-5.0,-16,-5.0,-5.0
193,306,w58111ca,Scene,1.0,1932.0,1,1,5,choice,3,2,2,8.0,4,4,2,2,11.0,22,11.0,11.0
194,307,w58111ca,Red,1.0,2480.0,1,2,5,choice,2,2,5,4.0,4,4,2,2,4.0,10,4.0,4.0
195,309,w58111ca,Green,1.0,1537.0,1,4,5,choice,3,2,1,8.0,4,4,2,3,8.0,11,8.0,8.0
196,310,w58111ca,Food,0.0,814.0,0,5,5,choice,2,1,1,1.0,4,4,2,3,1.0,-1,-3.0,-3.0
197,314,wc9128ed,Red,0.0,3704.0,1,3,1,choice,1,2,-4,3.0,3,3,1,3,3.0,-4,3.0,3.0
198,315,wc9128ed,Green,1.0,2029.0,1,4,1,choice,2,2,6,4.0,3,3,1,1,2.0,12,4.0,2.0
199,316,wc9128ed,Animal,0.0,2819.0,0,5,1,choice,2,1,4,-2.0,3,3,1,1,2.0,1,2.0,2.0
200,317,wc9128ed,Yellow,1.0,3177.0,1,6,1,choice,3,2,4,-2.0,3,3,1,1,5.0,4,1.0,5.0
201,318,wc9128ed,Animal,0.0,2743.0,0,1,2,choice,3,2,2,3.0,3,3,2,3,-2.0,-6,-9.0,-9.0
202,319,wc9128ed,Blue,1.0,4356.0,1,2,2,choice,1,2,7,7.0,3,3,1,1,7.0,7,7.0,7.0
203,320,wc9128ed,Scene,1.0,4011.0,1,3,2,choice,2,2,3,12.0,3,3,1,1,9.0,18,9.0,9.0
204,323,wc9128ed,Green,0.0,1593.0,1,6,2,choice,3,2,-1,-5.0,3,3,2,2,0.0,0,0.0,0.0
205,324,wc9128ed,Green,0.0,4678.0,1,1,3,choice,3,3,-1,-7.0,5,5,3,4,-7.0,5,2.0,2.0
206,325,wc9128ed,Yellow,1.0,5016.0,1,2,3,choice,1,1,8,8.0,5,5,1,1,8.0,16,8.0,8.0
207,326,wc9128ed,Food,1.0,3464.0,0,3,3,choice,3,2,-3,-6.0,5,5,2,2,-1.0,9,-1.0,-1.0
208,327,wc9128ed,Object,1.0,5670.0,1,4,3,choice,1,1,9,5.0,5,5,1,1,5.0,18,5.0,5.0
209,328,wc9128ed,Blue,0.0,1759.0,1,5,3,choice,2,1,-2,-3.0,5,5,1,1,2.0,4,2.0,2.0
210,329,wc9128ed,Scene,0.0,6958.0,1,6,3,choice,2,2,-1,-1.0,5,5,2,2,-1.0,-2,-1.0,-1.0
211,330,wc9128ed,Food,,,0,1,4,choice,1,1,-9,-2.0,5,5,1,1,-2.0,-18,-2.0,-2.0
212,331,wc9128ed,Blue,1.0,1725.0,1,2,4,choice,2,2,3,1.0,5,5,1,1,2.0,6,1.0,2.0
213,332,wc9128ed,Scene,1.0,2862.0,1,3,4,choice,3,3,1,3.0,5,5,3,3,3.0,10,3.0,3.0
214,333,wc9128ed,Red,1.0,3070.0,1,4,4,choice,3,3,3,10.0,5,5,3,3,10.0,-1,10.0,10.0
215,336,wc9128ed,Yellow,1.0,3487.0,1,1,5,choice,2,2,2,4.0,3,3,1,1,2.0,4,4.0,2.0
216,337,wc9128ed,Food,0.0,5061.0,0,2,5,choice,2,2,5,-4.0,3,3,1,1,2.0,10,-4.0,2.0
217,338,wc9128ed,Animal,1.0,1668.0,1,3,5,choice,3,3,2,2.0,3,3,2,3,0.0,9,2.0,0.0
218,341,wc9128ed,Red,1.0,1881.0,1,6,5,choice,1,1,3,5.0,3,3,1,1,5.0,6,5.0,5.0
219,344,wf8b98ff,Animal,1.0,1300.0,1,3,1,choice,1,1,6,6.0,3,3,1,1,6.0,6,6.0,6.0
220,346,wf8b98ff,Scene,1.0,3424.0,0,5,1,choice,3,2,-1,5.0,3,3,1,1,7.0,1,8.0,7.0
221,347,wf8b98ff,Yellow,1.0,1249.0,1,6,1,choice,3,1,4,12.0,3,3,2,2,13.0,20,7.0,7.0
222,348,wf8b98ff,Green,0.0,2588.0,1,1,2,choice,2,1,-5,-5.0,5,5,1,1,-9.0,-18,-9.0,-9.0
223,349,wf8b98ff,Blue,1.0,2053.0,0,2,2,choice,3,1,-3,2.0,5,5,3,3,2.0,-3,8.0,8.0
224,350,wf8b98ff,Object,0.0,4243.0,1,3,2,choice,2,1,-2,1.0,5,5,1,1,-3.0,-6,-3.0,-3.0
225,352,wf8b98ff,Scene,1.0,2369.0,1,5,2,choice,3,1,1,1.0,5,5,3,3,1.0,-10,-9.0,-9.0
226,353,wf8b98ff,Food,0.0,2631.0,1,6,2,choice,1,1,-5,-3.0,5,5,1,1,-3.0,-5,-3.0,-3.0
227,355,wf8b98ff,Animal,0.0,3313.0,0,2,3,choice,2,1,4,4.0,3,3,1,1,-1.0,-2,-1.0,-1.0
228,356,wf8b98ff,Blue,1.0,4035.0,1,3,3,choice,2,1,5,5.0,3,3,1,1,-1.0,-2,-1.0,-1.0
229,360,wf8b98ff,Yellow,0.0,3474.0,0,1,4,choice,2,1,1,-2.0,4,4,2,2,-2.0,-16,-8.0,-8.0
230,363,wf8b98ff,Animal,0.0,3030.0,1,4,4,choice,1,1,-6,-6.0,4,4,1,1,-6.0,-12,-6.0,-6.0
231,364,wf8b98ff,Green,0.0,3572.0,1,5,4,choice,3,1,-4,-4.0,4,4,2,2,-11.0,-12,-6.0,-6.0
232,365,wf8b98ff,Food,0.0,1756.0,0,6,4,choice,3,1,1,1.0,4,4,1,1,-8.0,-16,-8.0,-8.0
233,366,wf8b98ff,Scene,1.0,2881.0,1,1,5,choice,2,1,5,5.0,2,2,1,1,6.0,12,6.0,6.0
234,368,wf8b98ff,Green,0.0,4972.0,0,3,5,choice,3,1,1,3.0,2,2,2,2,-1.0,12,6.0,6.0
235,372,w4e997cb,Yellow,1.0,3551.0,0,1,1,choice,3,2,-1,4.0,3,3,2,2,7.0,0,-1.0,2.0
236,374,w4e997cb,Food,0.0,1607.0,0,3,1,choice,2,2,3,14.0,3,3,1,2,5.0,-2,5.0,5.0
237,375,w4e997cb,Scene,1.0,1009.0,1,4,1,choice,1,2,4,2.0,3,3,1,2,2.0,8,2.0,2.0
238,376,w4e997cb,Animal,0.0,1431.0,1,5,1,choice,3,2,-1,-6.0,3,3,1,1,-5.0,-20,-8.0,-5.0
239,377,w4e997cb,Green,0.0,1725.0,1,6,1,choice,2,1,-2,4.0,3,3,1,1,-5.0,-14,-5.0,-5.0
240,378,w4e997cb,Food,1.0,4467.0,1,1,2,choice,3,3,3,-7.0,5,5,3,3,-7.0,0,-7.0,-7.0
241,380,w4e997cb,Green,0.0,1731.0,0,3,2,choice,2,2,3,-8.0,5,5,2,2,-8.0,0,-5.0,-5.0
242,381,w4e997cb,Yellow,0.0,2663.0,1,4,2,choice,3,3,-6,-14.0,5,5,2,3,-10.0,-5,-10.0,-10.0
243,382,w4e997cb,Scene,0.0,1993.0,0,5,2,choice,2,2,6,-6.0,5,5,2,2,-6.0,12,-6.0,-6.0
244,383,w4e997cb,Red,1.0,1861.0,1,6,2,choice,1,1,5,5.0,5,5,1,1,5.0,10,5.0,5.0
245,384,w4e997cb,Object,1.0,3928.0,0,1,3,choice,3,2,-1,9.0,4,4,2,2,9.0,4,9.0,9.0
246,385,w4e997cb,Red,1.0,4482.0,1,2,3,choice,2,2,7,9.0,4,4,1,2,9.0,18,9.0,9.0
247,387,w4e997cb,Scene,1.0,3857.0,1,4,3,choice,2,1,4,0.0,4,4,1,1,0.0,6,0.0,0.0
248,388,w4e997cb,Food,0.0,4103.0,0,5,3,choice,1,2,5,5.0,4,4,1,2,5.0,10,5.0,5.0
249,389,w4e997cb,Blue,1.0,3598.0,1,6,3,choice,3,2,4,5.0,4,4,3,3,5.0,2,5.0,5.0
250,390,w4e997cb,Animal,1.0,2116.0,1,1,4,choice,2,1,8,4.0,5,5,2,2,4.0,17,5.0,5.0
251,391,w4e997cb,Red,0.0,3858.0,1,2,4,choice,3,2,-6,7.0,5,5,3,3,7.0,2,-2.0,-2.0
252,393,w4e997cb,Object,1.0,2918.0,1,4,4,choice,3,1,2,14.0,5,5,2,2,14.0,10,5.0,5.0
253,394,w4e997cb,Scene,0.0,2513.0,1,5,4,choice,1,1,-8,-7.0,5,5,1,1,-7.0,-16,-7.0,-7.0
254,395,w4e997cb,Green,0.0,2191.0,0,6,4,choice,2,2,4,4.0,5,5,2,2,4.0,9,4.0,4.0
255,397,w4e997cb,Yellow,0.0,2486.0,1,2,5,choice,1,1,-5,0.0,3,3,1,1,0.0,-5,0.0,0.0
256,399,w4e997cb,Animal,1.0,4810.0,0,4,5,choice,3,2,-1,14.0,3,3,2,3,5.0,5,14.0,5.0
257,400,w4e997cb,Blue,1.0,3689.0,1,5,5,choice,3,2,2,4.0,3,3,2,2,5.0,0,5.0,5.0
258,401,w4e997cb,Food,1.0,1044.0,0,6,5,choice,2,1,-5,0.0,3,3,1,1,0.0,-13,0.0,0.0
259,402,wecf7799,Green,1.0,2819.0,0,1,1,choice,2,4,-2,2.0,5,5,2,2,2.0,-4,2.0,2.0
260,403,wecf7799,Food,0.0,6865.0,0,2,1,choice,3,4,2,0.0,5,5,2,2,3.0,4,0.0,3.0
261,404,wecf7799,Yellow,1.0,2677.0,1,3,1,choice,1,4,3,-3.0,5,5,1,1,-3.0,6,-3.0,-3.0
262,405,wecf7799,Object,1.0,3270.0,1,4,1,choice,2,4,3,5.0,5,5,2,2,5.0,6,5.0,5.0
263,406,wecf7799,Blue,0.0,1112.0,1,5,1,choice,3,4,-4,2.0,5,5,2,2,5.0,-8,2.0,5.0
264,407,wecf7799,Animal,0.0,2109.0,1,6,1,choice,1,4,-8,-4.0,5,5,1,1,-4.0,-16,-4.0,-4.0
265,408,wecf7799,Animal,0.0,3561.0,0,1,2,choice,2,4,1,-2.0,5,5,1,1,-6.0,1,-2.0,-6.0
266,409,wecf7799,Food,1.0,3000.0,1,2,2,choice,1,4,5,6.0,5,5,1,1,6.0,10,6.0,6.0
267,410,wecf7799,Red,1.0,2158.0,1,3,2,choice,3,2,4,6.0,5,5,3,3,6.0,16,12.0,12.0
268,411,wecf7799,Blue,1.0,2527.0,0,4,2,choice,1,4,-6,9.0,5,5,1,1,9.0,-12,9.0,9.0
269,412,wecf7799,Scene,1.0,2169.0,0,5,2,choice,3,3,-3,12.0,5,5,3,3,12.0,-2,12.0,12.0
270,414,wecf7799,Food,1.0,1767.0,0,1,3,choice,2,3,-5,-5.0,2,2,1,1,2.0,-12,-5.0,2.0
271,417,wecf7799,Red,1.0,979.0,1,4,3,choice,3,1,1,3.0,2,2,2,2,-1.0,-5,-3.0,-3.0
272,419,wecf7799,Animal,1.0,1131.0,0,6,3,choice,3,3,-1,-14.0,2,2,1,1,-3.0,-18,-6.0,-3.0
273,421,wecf7799,Green,1.0,1943.0,1,2,4,choice,3,2,2,2.0,3,3,1,1,-4.0,1,0.0,-4.0
274,422,wecf7799,Red,0.0,1162.0,1,3,4,choice,1,1,-2,-2.0,3,3,1,1,-2.0,-2,-2.0,-2.0
275,423,wecf7799,Scene,1.0,3480.0,0,4,4,choice,3,2,-1,-15.0,3,3,2,2,-6.0,0,-13.0,-4.0
276,426,wecf7799,Yellow,1.0,2355.0,1,1,5,choice,3,2,5,-4.0,2,2,2,2,-1.0,18,4.0,7.0
277,427,wecf7799,Scene,1.0,1820.0,1,2,5,choice,2,2,4,3.0,2,2,1,2,7.0,11,7.0,7.0
278,429,wecf7799,Object,0.0,1614.0,1,4,5,choice,3,2,-4,-10.0,2,2,1,1,-8.0,5,-6.0,-8.0
279,492,wbb70a68,Animal,1.0,6182.0,1,1,1,choice,3,3,5,19.0,4,4,3,3,19.0,10,19.0,19.0
280,493,wbb70a68,Scene,0.0,2838.0,1,2,1,choice,1,1,-7,-7.0,4,4,1,1,-7.0,-7,-7.0,-7.0
281,495,wbb70a68,Green,0.0,1703.0,0,4,1,choice,2,1,6,2.0,4,4,1,1,5.0,16,5.0,5.0
282,496,wbb70a68,Yellow,1.0,3031.0,1,5,1,choice,3,2,4,6.0,4,4,2,2,-1.0,5,6.0,6.0
283,497,wbb70a68,Red,0.0,1377.0,1,6,1,choice,1,2,-9,8.0,4,4,1,2,8.0,-18,8.0,8.0
284,498,wbb70a68,Green,0.0,6948.0,1,1,2,choice,2,2,-5,-4.0,5,5,2,3,-4.0,-10,-4.0,-4.0
285,499,wbb70a68,Food,,,0,2,2,choice,2,2,-1,-1.0,5,5,2,2,-1.0,-2,-1.0,-1.0
286,500,wbb70a68,Scene,1.0,2649.0,1,3,2,choice,3,3,1,2.0,5,5,3,3,2.0,2,2.0,2.0
287,501,wbb70a68,Blue,1.0,4170.0,1,4,2,choice,1,1,4,5.0,5,5,1,1,5.0,8,5.0,5.0
288,502,wbb70a68,Red,0.0,1590.0,1,5,2,choice,3,3,-1,-4.0,5,5,2,2,0.0,-2,-4.0,0.0
289,504,wbb70a68,Scene,1.0,4203.0,0,1,3,choice,3,2,-2,3.0,2,2,2,2,0.0,8,0.0,0.0
290,507,wbb70a68,Red,1.0,2493.0,1,4,3,choice,1,1,7,6.0,2,2,1,2,6.0,14,6.0,6.0
291,509,wbb70a68,Blue,0.0,4227.0,1,6,3,choice,2,1,-1,-14.0,2,2,1,1,-6.0,-6,-6.0,-6.0
292,510,wbb70a68,Blue,1.0,4439.0,1,1,4,choice,2,2,1,4.0,4,4,2,2,4.0,2,4.0,4.0
293,511,wbb70a68,Scene,1.0,4495.0,0,2,4,choice,1,1,-5,3.0,4,4,1,1,3.0,-10,3.0,3.0
294,513,wbb70a68,Green,1.0,1619.0,0,4,4,choice,3,2,-1,-2.0,4,4,2,2,-5.0,-2,-5.0,-5.0
295,514,wbb70a68,Animal,0.0,2202.0,0,5,4,choice,3,1,1,10.0,4,4,1,1,5.0,4,5.0,5.0
296,515,wbb70a68,Food,0.0,2060.0,0,6,4,choice,2,2,7,-9.0,4,4,2,2,-9.0,6,-1.0,-1.0
297,516,wbb70a68,Red,1.0,2974.0,1,1,5,choice,3,1,3,14.0,2,2,1,1,5.0,4,5.0,5.0
298,519,wbb70a68,Object,0.0,2268.0,1,4,5,choice,3,1,-2,6.0,2,2,1,1,2.0,-6,2.0,2.0
299,520,wbb70a68,Green,1.0,1479.0,0,5,5,choice,1,1,-3,2.0,2,2,1,1,2.0,-6,2.0,2.0
300,522,w967bd55,Food,1.0,3299.0,1,1,1,choice,3,3,1,-10.0,4,4,2,2,-1.0,3,-10.0,-1.0
301,523,w967bd55,Green,1.0,6416.0,1,2,1,choice,2,2,1,1.0,4,4,2,2,1.0,2,1.0,1.0
302,524,w967bd55,Animal,0.0,3214.0,0,3,1,choice,2,3,8,2.0,4,4,2,3,2.0,16,2.0,2.0
303,527,w967bd55,Blue,0.0,6023.0,1,6,1,choice,3,3,-2,-2.0,4,4,2,2,0.0,1,1.0,3.0
304,528,w967bd55,Red,,,0,1,2,choice,3,2,4,5.0,5,5,3,3,5.0,-4,14.0,14.0
305,529,w967bd55,Food,1.0,5140.0,0,2,2,choice,2,2,-1,15.0,5,5,2,2,15.0,-2,15.0,15.0
306,530,w967bd55,Animal,1.0,3361.0,1,3,2,choice,1,2,7,7.0,5,5,1,1,7.0,14,7.0,7.0
307,532,w967bd55,Object,0.0,3596.0,1,5,2,choice,3,2,-1,-15.0,5,5,2,2,-6.0,-14,-6.0,3.0
308,533,w967bd55,Green,1.0,4698.0,1,6,2,choice,2,2,5,11.0,5,5,2,2,11.0,10,11.0,11.0
309,534,w967bd55,Red,0.0,4577.0,1,1,3,choice,2,3,-4,5.0,5,5,2,3,5.0,-3,5.0,5.0
310,536,w967bd55,Food,0.0,1538.0,1,3,3,choice,3,2,-1,-1.0,5,5,3,3,-1.0,3,-3.0,-3.0
311,537,w967bd55,Blue,1.0,3727.0,1,4,3,choice,1,2,8,4.0,5,5,1,1,4.0,16,4.0,4.0
312,538,w967bd55,Yellow,1.0,2192.0,0,5,3,choice,3,2,-1,-17.0,5,5,2,2,-16.0,-11,-16.0,-16.0
313,539,w967bd55,Scene,0.0,1307.0,1,6,3,choice,2,2,-5,-6.0,5,5,2,2,-6.0,-10,-6.0,-6.0
314,540,w967bd55,Object,1.0,2519.0,0,1,4,choice,1,2,-8,-8.0,3,3,1,1,-8.0,-16,-8.0,-8.0
315,543,w967bd55,Yellow,1.0,470.0,1,4,4,choice,3,3,5,-19.0,3,3,2,2,-17.0,-2,-17.0,-17.0
316,545,w967bd55,Scene,0.0,797.0,0,6,4,choice,3,2,2,-9.0,3,3,2,2,-6.0,-4,-12.0,-9.0
317,546,w967bd55,Red,0.0,1436.0,0,1,5,choice,3,1,1,-10.0,5,5,2,2,-1.0,-4,-3.0,-3.0
318,547,w967bd55,Object,0.0,3984.0,0,2,5,choice,2,1,2,-12.0,5,5,1,1,-3.0,-6,-3.0,-3.0
319,548,w967bd55,Scene,0.0,5024.0,0,3,5,choice,1,1,2,2.0,5,5,1,1,2.0,2,2.0,2.0
320,549,w967bd55,Green,1.0,2544.0,1,4,5,choice,2,2,6,-3.0,5,5,2,2,-3.0,12,-3.0,-3.0
321,550,w967bd55,Animal,0.0,1185.0,1,5,5,choice,3,2,-1,-7.0,5,5,3,3,-7.0,4,-4.0,-4.0
322,551,w967bd55,Yellow,1.0,3738.0,0,6,5,choice,1,1,-4,-4.0,5,5,1,1,-4.0,-8,-4.0,-4.0
323,553,w8bc33f5,Red,1.0,3100.0,1,2,1,choice,2,2,4,5.0,3,3,1,2,5.0,11,5.0,5.0
324,554,w8bc33f5,Blue,0.0,1759.0,0,3,1,choice,3,2,1,-1.0,3,3,1,1,3.0,-12,-6.0,3.0
325,557,w8bc33f5,Scene,1.0,440.0,0,6,1,choice,2,2,-2,-4.0,3,3,1,2,5.0,-4,-4.0,5.0
326,558,w8bc33f5,Animal,0.0,5924.0,1,1,2,choice,3,3,-4,-2.0,5,5,3,3,-2.0,-8,-2.0,-2.0
327,559,w8bc33f5,Food,1.0,4445.0,1,2,2,choice,2,1,6,-5.0,5,5,2,2,-5.0,20,4.0,4.0
328,561,w8bc33f5,Green,0.0,3165.0,1,4,2,choice,1,2,-5,-7.0,5,5,1,1,-7.0,-10,-3.0,-3.0
329,562,w8bc33f5,Yellow,0.0,1760.0,0,5,2,choice,3,2,3,-7.0,5,5,2,2,0.0,5,0.0,0.0
330,563,w8bc33f5,Blue,1.0,3625.0,1,6,2,choice,2,2,8,0.0,5,5,2,2,0.0,17,0.0,0.0
331,565,w8bc33f5,Green,1.0,1520.0,0,2,3,choice,2,2,-8,7.0,4,4,1,1,8.0,-16,7.0,8.0
332,566,w8bc33f5,Blue,0.0,384.0,1,3,3,choice,3,3,-4,0.0,4,4,2,3,-4.0,2,4.0,4.0
333,567,w8bc33f5,Scene,0.0,1843.0,0,4,3,choice,3,3,3,12.0,4,4,3,3,12.0,6,12.0,12.0
334,568,w8bc33f5,Object,0.0,725.0,1,5,3,choice,1,1,-7,0.0,4,4,1,1,0.0,-14,8.0,8.0
335,569,w8bc33f5,Red,1.0,1896.0,1,6,3,choice,1,1,4,8.0,4,4,1,1,8.0,8,8.0,8.0
336,570,w8bc33f5,Object,1.0,2781.0,1,1,4,choice,3,3,5,4.0,5,5,3,3,4.0,10,4.0,4.0
337,571,w8bc33f5,Green,0.0,2472.0,0,2,4,choice,1,1,6,4.0,5,5,1,1,4.0,12,4.0,4.0
338,572,w8bc33f5,Food,0.0,1618.0,1,3,4,choice,1,1,-4,5.0,5,5,1,1,5.0,-8,5.0,5.0
339,573,w8bc33f5,Red,0.0,630.0,1,4,4,choice,3,2,-3,19.0,5,5,2,2,14.0,8,14.0,14.0
340,574,w8bc33f5,Animal,0.0,1372.0,1,5,4,choice,2,1,-6,-2.0,5,5,1,1,-7.0,2,-7.0,-7.0
341,575,w8bc33f5,Yellow,0.0,801.0,1,6,4,choice,2,2,-8,-16.0,5,5,2,2,-16.0,-16,-16.0,-16.0
342,576,w8bc33f5,Object,0.0,1939.0,1,1,5,choice,1,1,-7,4.0,6,6,1,1,4.0,-14,4.0,4.0
343,577,w8bc33f5,Green,1.0,1675.0,0,2,5,choice,3,3,-5,11.0,6,6,3,3,11.0,-10,11.0,11.0
344,578,w8bc33f5,Yellow,0.0,459.0,1,3,5,choice,2,2,-6,-7.0,6,6,2,2,-7.0,-12,-7.0,-7.0
345,579,w8bc33f5,Red,0.0,804.0,0,4,5,choice,1,1,5,8.0,6,6,1,1,8.0,10,8.0,8.0
346,580,w8bc33f5,Scene,0.0,362.0,1,5,5,choice,2,2,-3,-4.0,6,6,2,2,-4.0,-6,-4.0,-4.0
347,581,w8bc33f5,Food,0.0,1371.0,0,6,5,choice,3,3,4,12.0,6,6,3,3,12.0,8,12.0,12.0
348,584,w2b37aae,Yellow,1.0,1757.0,1,3,1,choice,2,4,2,-3.0,3,3,1,2,-1.0,12,-3.0,-1.0
349,585,w2b37aae,Blue,0.0,4112.0,1,4,1,choice,3,4,-5,12.0,3,3,2,2,4.0,-3,12.0,4.0
350,587,w2b37aae,Object,0.0,4079.0,1,6,1,choice,2,4,-1,-1.0,3,3,1,1,1.0,3,-1.0,1.0
351,588,w2b37aae,Blue,1.0,2315.0,0,1,2,choice,3,4,-1,18.0,3,3,2,2,14.0,-2,18.0,14.0
352,591,w2b37aae,Red,1.0,1870.0,1,4,2,choice,2,4,4,7.0,3,3,1,2,2.0,8,7.0,2.0
353,592,w2b37aae,Object,0.0,1813.0,0,5,2,choice,2,4,8,14.0,3,3,1,1,9.0,16,14.0,9.0
354,593,w2b37aae,Animal,1.0,1792.0,1,6,2,choice,3,4,1,3.0,3,3,2,2,7.0,2,3.0,7.0
355,594,w2b37aae,Food,1.0,3774.0,0,1,3,choice,2,4,-5,1.0,4,4,1,1,-4.0,-10,1.0,-4.0
356,595,w2b37aae,Animal,0.0,1325.0,1,2,3,choice,1,4,-3,-3.0,4,4,1,2,-3.0,-6,-3.0,-3.0
357,596,w2b37aae,Green,1.0,1965.0,0,3,3,choice,3,4,-1,-15.0,4,4,3,3,-15.0,-2,-15.0,-15.0
358,597,w2b37aae,Scene,0.0,1569.0,0,4,3,choice,3,4,1,-15.0,4,4,2,2,-17.0,2,-15.0,-17.0
359,599,w2b37aae,Red,0.0,981.0,1,6,3,choice,2,4,-8,-4.0,4,4,1,1,-9.0,-16,-4.0,-9.0
360,600,w2b37aae,Animal,0.0,5468.0,0,1,4,choice,3,4,1,5.0,2,2,2,2,8.0,2,5.0,8.0
361,601,w2b37aae,Green,1.0,5484.0,0,2,4,choice,3,4,-4,7.0,2,2,1,1,3.0,-8,7.0,3.0
362,602,w2b37aae,Blue,1.0,3559.0,1,3,4,choice,1,4,6,5.0,2,2,1,1,5.0,12,5.0,5.0
363,607,w2b37aae,Red,1.0,3639.0,1,2,5,choice,2,2,5,9.0,4,4,1,1,7.0,9,7.0,7.0
364,608,w2b37aae,Scene,0.0,4632.0,0,3,5,choice,2,1,1,-3.0,4,4,1,1,-5.0,10,-5.0,-5.0
365,609,w2b37aae,Yellow,1.0,2424.0,1,4,5,choice,3,2,4,0.0,4,4,3,3,0.0,2,-5.0,-5.0
366,610,w2b37aae,Object,1.0,1558.0,0,5,5,choice,3,2,-1,13.0,4,4,2,2,16.0,1,9.0,9.0
367,613,w4ebac4c,Yellow,1.0,5753.0,1,2,1,choice,1,2,9,3.0,5,5,1,1,3.0,18,3.0,3.0
368,614,w4ebac4c,Scene,1.0,1438.0,1,3,1,choice,2,4,2,12.0,5,5,2,2,12.0,9,12.0,12.0
369,615,w4ebac4c,Blue,1.0,1868.0,0,4,1,choice,3,3,-2,6.0,5,5,2,2,0.0,-2,0.0,-6.0
370,616,w4ebac4c,Green,0.0,2758.0,1,5,1,choice,2,3,-1,0.0,5,5,2,2,0.0,-2,0.0,0.0
371,617,w4ebac4c,Food,0.0,4560.0,1,6,1,choice,3,3,-2,-9.0,5,5,3,3,-9.0,-1,-3.0,-3.0
372,618,w4ebac4c,Scene,1.0,2267.0,1,1,2,choice,1,3,5,2.0,5,5,1,2,2.0,10,2.0,2.0
373,620,w4ebac4c,Food,0.0,5144.0,1,3,2,choice,2,2,-1,11.0,5,5,2,2,11.0,-2,11.0,11.0
374,621,w4ebac4c,Red,1.0,826.0,1,4,2,choice,2,1,5,11.0,5,5,1,1,8.0,16,8.0,8.0
375,623,w4ebac4c,Yellow,0.0,2402.0,0,6,2,choice,3,3,3,10.0,5,5,3,3,10.0,-8,5.0,5.0
376,625,w4ebac4c,Scene,1.0,4075.0,1,2,3,choice,2,4,5,3.0,3,3,1,1,6.0,12,3.0,6.0
377,626,w4ebac4c,Food,1.0,2825.0,0,3,3,choice,1,4,-9,8.0,3,3,1,1,8.0,-18,8.0,8.0
378,627,w4ebac4c,Animal,0.0,2403.0,0,4,3,choice,3,1,3,17.0,3,3,1,1,5.0,11,5.0,5.0
379,628,w4ebac4c,Red,1.0,526.0,1,5,3,choice,3,2,4,19.0,3,3,3,3,19.0,2,14.0,14.0
380,630,w4ebac4c,Animal,0.0,3085.0,1,1,4,choice,1,1,-6,8.0,4,4,1,1,8.0,-12,8.0,8.0
381,632,w4ebac4c,Scene,1.0,2412.0,1,3,4,choice,3,4,1,3.0,4,4,1,1,-6.0,6,3.0,-6.0
382,633,w4ebac4c,Blue,0.0,1257.0,1,4,4,choice,2,2,-7,-2.0,4,4,1,1,-5.0,-5,-2.0,-5.0
383,634,w4ebac4c,Red,0.0,2376.0,0,5,4,choice,1,2,3,-6.0,4,4,1,1,-6.0,6,-6.0,-6.0
384,635,w4ebac4c,Yellow,0.0,2357.0,1,6,4,choice,3,2,-3,10.0,4,4,2,3,4.0,-9,4.0,4.0
385,639,w4ebac4c,Green,0.0,1414.0,0,4,5,choice,3,3,5,0.0,2,2,1,1,3.0,7,-3.0,3.0
386,641,w4ebac4c,Animal,1.0,3429.0,0,6,5,choice,3,4,-3,-19.0,2,2,1,2,-6.0,5,-19.0,-6.0
387,642,w95f2351,Green,1.0,1350.0,1,1,1,choice,3,1,3,1.0,5,5,3,3,1.0,9,4.0,4.0
388,643,w95f2351,Animal,1.0,3804.0,1,2,1,choice,1,1,6,4.0,5,5,1,1,4.0,12,4.0,4.0
389,644,w95f2351,Food,0.0,3859.0,1,3,1,choice,2,1,-5,-5.0,5,5,2,2,-5.0,-5,-8.0,-8.0
390,646,w95f2351,Yellow,1.0,2922.0,1,5,1,choice,2,1,1,1.0,5,5,2,2,1.0,3,3.0,3.0
391,647,w95f2351,Object,0.0,6582.0,1,6,1,choice,3,1,-1,6.0,5,5,2,2,3.0,5,5.0,5.0
392,648,w95f2351,Blue,1.0,4076.0,1,1,2,choice,2,2,1,1.0,6,6,2,2,1.0,2,1.0,1.0
393,649,w95f2351,Food,1.0,5577.0,1,2,2,choice,2,2,3,3.0,6,6,2,2,3.0,6,3.0,3.0
394,650,w95f2351,Animal,1.0,3789.0,1,3,2,choice,3,3,1,1.0,6,6,3,3,1.0,2,1.0,1.0
395,651,w95f2351,Scene,0.0,1471.0,1,4,2,choice,1,1,-8,-8.0,6,6,1,1,-8.0,-16,-8.0,-8.0
396,652,w95f2351,Green,0.0,2964.0,0,5,2,choice,3,3,2,2.0,6,6,3,3,2.0,4,2.0,2.0
397,653,w95f2351,Red,0.0,1935.0,1,6,2,choice,1,1,-7,-7.0,6,6,1,1,-7.0,-14,-7.0,-7.0
398,654,w95f2351,Blue,1.0,4054.0,1,1,3,choice,2,2,3,3.0,6,6,2,2,3.0,6,3.0,3.0
399,655,w95f2351,Yellow,0.0,4268.0,1,2,3,choice,1,1,-6,-6.0,6,6,1,1,-6.0,-12,-6.0,-6.0
400,656,w95f2351,Object,1.0,2371.0,1,3,3,choice,2,2,2,2.0,6,6,2,2,2.0,1,2.0,2.0
401,657,w95f2351,Red,0.0,3634.0,0,4,3,choice,3,1,1,1.0,6,6,3,3,1.0,-11,-7.0,-7.0
402,658,w95f2351,Scene,0.0,1942.0,0,5,3,choice,3,2,3,3.0,6,6,3,3,3.0,-4,-2.0,-2.0
403,659,w95f2351,Food,0.0,4720.0,1,6,3,choice,1,1,-7,-7.0,6,6,1,1,-7.0,-14,-7.0,-7.0
404,661,w95f2351,Object,1.0,3108.0,0,2,4,choice,3,2,-3,-3.0,5,5,3,3,-3.0,-24,-12.0,-12.0
405,662,w95f2351,Scene,1.0,4770.0,1,3,4,choice,1,1,2,2.0,5,5,1,1,2.0,4,2.0,2.0
406,663,w95f2351,Green,0.0,4215.0,1,4,4,choice,1,1,-4,-4.0,5,5,1,1,-4.0,-8,-4.0,-4.0
407,664,w95f2351,Blue,0.0,2821.0,0,5,4,choice,3,2,1,1.0,5,5,3,3,1.0,-5,-6.0,-6.0
408,665,w95f2351,Animal,1.0,2676.0,1,6,4,choice,2,1,6,6.0,5,5,1,1,7.0,7,7.0,7.0
409,666,w95f2351,Animal,0.0,7247.0,1,1,5,choice,1,1,-3,-3.0,6,6,1,1,-3.0,-6,-3.0,-3.0
410,667,w95f2351,Yellow,1.0,3961.0,0,2,5,choice,2,2,-2,-1.0,6,6,2,2,-1.0,-4,-1.0,-1.0
411,668,w95f2351,Red,0.0,818.0,1,3,5,choice,3,3,-1,-1.0,6,6,3,3,-1.0,0,-1.0,-1.0
412,669,w95f2351,Blue,1.0,3841.0,1,4,5,choice,1,1,6,6.0,6,6,1,1,6.0,6,6.0,6.0
413,670,w95f2351,Food,0.0,5544.0,0,5,5,choice,3,2,3,3.0,6,6,3,3,3.0,0,-3.0,-3.0
414,671,w95f2351,Scene,1.0,5358.0,1,6,5,choice,2,1,3,4.0,6,6,2,2,4.0,8,6.0,6.0
415,672,w4e902e8,Object,1.0,3855.0,1,1,1,choice,1,4,8,8.0,6,6,1,1,8.0,16,8.0,8.0
416,673,w4e902e8,Yellow,0.0,4195.0,0,2,1,choice,1,4,6,-6.0,6,6,1,1,-6.0,12,-6.0,-6.0
417,674,w4e902e8,Scene,1.0,2146.0,0,3,1,choice,3,4,-2,4.0,6,6,3,3,4.0,-4,4.0,4.0
418,675,w4e902e8,Animal,0.0,2888.0,1,4,1,choice,2,4,-6,3.0,6,6,2,2,3.0,-12,3.0,3.0
419,676,w4e902e8,Blue,1.0,4013.0,0,5,1,choice,3,4,-2,15.0,6,6,3,3,15.0,-4,15.0,15.0
420,677,w4e902e8,Red,1.0,6661.0,0,6,1,choice,2,4,-4,6.0,6,6,2,2,6.0,-8,6.0,6.0
421,678,w4e902e8,Yellow,0.0,3251.0,1,1,2,choice,3,4,-1,-1.0,5,5,3,3,-1.0,-2,-1.0,-1.0
422,680,w4e902e8,Scene,1.0,6898.0,1,3,2,choice,2,4,3,-13.0,5,5,2,3,-13.0,6,-13.0,-13.0
423,681,w4e902e8,Green,0.0,3019.0,1,4,2,choice,2,4,-2,-15.0,5,5,2,2,-15.0,-4,-15.0,-15.0
424,682,w4e902e8,Food,1.0,4153.0,0,5,2,choice,1,4,-3,-3.0,5,5,1,1,-3.0,-6,-3.0,-3.0
425,683,w4e902e8,Object,1.0,3431.0,1,6,2,choice,3,4,2,3.0,5,5,2,2,0.0,4,3.0,0.0
426,684,w4e902e8,Food,0.0,4840.0,0,1,3,choice,3,4,2,-7.0,3,3,1,2,-6.0,4,-7.0,-6.0
427,686,w4e902e8,Green,1.0,1353.0,0,3,3,choice,3,4,-1,-9.0,3,3,3,3,-9.0,-2,-9.0,-9.0
428,688,w4e902e8,Animal,0.0,1758.0,1,5,3,choice,1,4,-6,-1.0,3,3,1,1,-1.0,-12,-1.0,-1.0
429,689,w4e902e8,Scene,0.0,2152.0,1,6,3,choice,2,4,-1,-6.0,3,3,1,2,-2.0,-2,-6.0,-2.0
430,690,w4e902e8,Red,0.0,2474.0,1,1,4,choice,3,4,-1,3.0,4,4,1,1,5.0,-2,3.0,5.0
431,691,w4e902e8,Object,0.0,1109.0,0,2,4,choice,2,4,7,4.0,4,4,1,2,2.0,14,4.0,2.0
432,693,w4e902e8,Animal,0.0,1285.0,0,4,4,choice,3,4,1,3.0,4,4,3,3,3.0,2,3.0,3.0
433,694,w4e902e8,Green,0.0,1451.0,0,5,4,choice,2,4,2,5.0,4,4,2,3,5.0,4,5.0,5.0
434,695,w4e902e8,Blue,0.0,646.0,0,6,4,choice,1,4,5,-5.0,4,4,1,1,-5.0,10,-5.0,-5.0
435,696,w4e902e8,Animal,1.0,4204.0,0,1,5,choice,1,4,-2,3.0,4,4,1,2,3.0,-4,3.0,3.0
436,697,w4e902e8,Object,1.0,3587.0,1,2,5,choice,2,4,8,-1.0,4,4,1,1,2.0,16,-1.0,2.0
437,698,w4e902e8,Yellow,0.0,1481.0,1,3,5,choice,3,4,-1,14.0,4,4,3,3,14.0,-2,14.0,14.0
438,700,w4e902e8,Green,0.0,1768.0,0,5,5,choice,1,4,4,-7.0,4,4,1,2,-7.0,8,-7.0,-7.0
439,701,w4e902e8,Food,1.0,2206.0,1,6,5,choice,3,4,2,-1.0,4,4,2,2,2.0,4,-1.0,2.0
440,705,w8f37d35,Animal,1.0,4638.0,0,4,1,choice,3,4,-3,-3.0,2,2,1,1,0.0,-15,6.0,9.0
441,706,w8f37d35,Red,0.0,2377.0,1,5,1,choice,3,3,-2,0.0,2,2,2,2,0.0,4,18.0,18.0
442,707,w8f37d35,Food,0.0,2598.0,0,6,1,choice,1,5,9,0.0,2,2,1,2,0.0,27,9.0,9.0
443,708,w8f37d35,Blue,0.0,2713.0,0,1,2,choice,2,2,2,-6.0,3,3,1,1,-6.0,-4,-6.0,-6.0
444,709,w8f37d35,Yellow,1.0,1627.0,0,2,2,choice,3,3,-2,-2.0,3,3,2,2,-2.0,1,4.0,4.0
445,711,w8f37d35,Scene,,,0,4,2,choice,3,3,1,-4.0,3,3,2,2,-6.0,7,2.0,0.0
446,713,w8f37d35,Animal,0.0,4867.0,0,6,2,choice,2,4,4,-2.0,3,3,1,1,-2.0,0,-2.0,-2.0
447,718,w8f37d35,Food,,,0,5,3,choice,3,5,-2,0.0,1,1,1,1,0.0,-4,15.0,2.0
448,719,w8f37d35,Blue,0.0,461.0,1,6,3,choice,2,4,-1,-3.0,1,1,1,1,0.0,-2,-1.0,2.0
449,720,w8f37d35,Green,0.0,3880.0,0,1,4,choice,1,4,4,0.0,2,2,1,1,0.0,8,2.0,2.0
450,722,w8f37d35,Scene,1.0,1856.0,1,3,4,choice,3,3,3,0.0,2,2,2,2,0.0,6,8.0,4.0
451,723,w8f37d35,Blue,0.0,1639.0,1,4,4,choice,3,4,-2,0.0,2,2,1,1,0.0,-1,6.0,2.0
452,726,w8f37d35,Object,1.0,2046.0,1,1,5,choice,1,4,8,8.0,3,3,1,1,8.0,16,8.0,8.0
453,727,w8f37d35,Blue,0.0,5726.0,0,2,5,choice,1,4,7,0.0,3,3,1,1,0.0,14,3.0,3.0
454,728,w8f37d35,Yellow,1.0,2903.0,0,3,5,choice,3,4,-1,6.0,3,3,2,2,8.0,1,10.0,12.0
455,730,w8f37d35,Food,1.0,1347.0,0,5,5,choice,3,4,-4,1.0,3,3,1,1,0.0,-8,4.0,3.0
456,750,wada012d,Yellow,1.0,3859.0,0,1,1,choice,1,2,-5,-2.0,2,2,1,1,-2.0,-10,-2.0,-2.0
457,751,wada012d,Scene,1.0,771.0,0,2,1,choice,3,3,-1,6.0,2,2,2,2,-2.0,-2,9.0,1.0
458,755,wada012d,Blue,1.0,2501.0,0,6,1,choice,2,3,-1,5.0,2,2,1,1,0.0,-2,8.0,3.0
459,756,wada012d,Object,1.0,2656.0,1,1,2,choice,2,2,4,-2.0,6,6,2,2,-2.0,8,-2.0,-2.0
460,757,wada012d,Red,1.0,1835.0,1,2,2,choice,3,2,3,4.0,6,6,3,3,4.0,12,6.0,6.0
461,758,wada012d,Food,1.0,1277.0,1,3,2,choice,3,3,3,3.0,6,6,3,3,3.0,6,3.0,3.0
462,759,wada012d,Blue,1.0,701.0,1,4,2,choice,2,2,6,-1.0,6,6,2,2,-1.0,12,-1.0,-1.0
463,760,wada012d,Yellow,0.0,3045.0,1,5,2,choice,1,1,-8,-4.0,6,6,1,1,-4.0,-16,-4.0,-4.0
464,761,wada012d,Scene,1.0,2900.0,0,6,2,choice,1,2,-6,-2.0,6,6,1,1,-2.0,-6,-2.0,-2.0
465,762,wada012d,Object,0.0,4279.0,1,1,3,choice,1,1,-2,-3.0,6,6,1,1,-3.0,-4,-3.0,-3.0
466,763,wada012d,Yellow,1.0,4622.0,0,2,3,choice,3,2,-1,-3.0,6,6,3,3,-3.0,-7,-7.0,-7.0
467,764,wada012d,Scene,1.0,3227.0,1,3,3,choice,3,3,3,3.0,6,6,3,3,3.0,1,3.0,3.0
468,765,wada012d,Red,1.0,574.0,1,4,3,choice,1,1,7,8.0,6,6,1,1,8.0,14,8.0,8.0
469,766,wada012d,Blue,0.0,2475.0,1,5,3,choice,2,2,-6,-4.0,6,6,2,2,-4.0,-12,-4.0,-4.0
470,767,wada012d,Animal,0.0,1539.0,1,6,3,choice,2,2,-1,1.0,6,6,2,2,1.0,-2,1.0,1.0
471,768,wada012d,Animal,,,0,1,4,choice,3,2,-1,-7.0,3,3,2,2,-2.0,1,-2.0,-2.0
472,770,wada012d,Red,1.0,1499.0,0,3,4,choice,2,2,-4,4.0,3,3,2,2,4.0,-8,4.0,4.0
473,772,wada012d,Yellow,1.0,724.0,1,5,4,choice,3,3,3,-13.0,3,3,1,1,-4.0,2,-13.0,-4.0
474,773,wada012d,Object,1.0,889.0,0,6,4,choice,2,2,-7,-2.0,3,3,1,1,2.0,-14,-2.0,2.0
475,774,wada012d,Scene,1.0,2851.0,0,1,5,choice,1,2,-4,-6.0,3,3,1,2,-6.0,-8,-6.0,-6.0
476,775,wada012d,Red,1.0,7104.0,0,2,5,choice,2,2,-5,1.0,3,3,1,1,4.0,-10,1.0,4.0
477,776,wada012d,Food,0.0,1362.0,1,3,5,choice,2,1,-3,-1.0,3,3,1,1,4.0,6,4.0,4.0
478,777,wada012d,Animal,1.0,1166.0,1,4,5,choice,3,2,4,-8.0,3,3,1,1,4.0,-2,1.0,4.0
479,778,wada012d,Green,1.0,1358.0,0,5,5,choice,3,2,-3,-7.0,3,3,2,2,-2.0,6,-2.0,-2.0
480,781,wc9d64f4,Animal,1.0,996.0,1,2,1,choice,1,1,7,2.0,2,2,1,1,2.0,14,2.0,2.0
481,785,wc9d64f4,Green,1.0,1148.0,1,6,1,choice,3,1,3,10.0,2,2,1,1,2.0,14,2.0,2.0
482,786,wc9d64f4,Blue,1.0,2429.0,1,1,2,choice,2,2,2,5.0,4,4,2,2,5.0,-1,5.0,5.0
483,788,wc9d64f4,Scene,1.0,2112.0,1,3,2,choice,2,1,5,11.0,4,4,1,1,3.0,-6,3.0,3.0
484,789,wc9d64f4,Object,0.0,2490.0,0,4,2,choice,3,1,1,-2.0,4,4,3,3,-2.0,-5,-6.0,-6.0
485,790,wc9d64f4,Green,1.0,2294.0,1,5,2,choice,1,1,2,2.0,4,4,1,2,2.0,2,2.0,2.0
486,791,wc9d64f4,Yellow,0.0,2010.0,1,6,2,choice,3,2,-5,-5.0,4,4,1,2,-6.0,-12,-6.0,-6.0
487,792,wc9d64f4,Yellow,0.0,3314.0,1,1,3,choice,1,1,-2,-2.0,4,4,1,1,-2.0,-2,-2.0,-2.0
488,793,wc9d64f4,Animal,0.0,2508.0,1,2,3,choice,3,1,-1,13.0,4,4,2,3,5.0,16,7.0,7.0
489,794,wc9d64f4,Object,1.0,2911.0,1,3,3,choice,1,1,6,6.0,4,4,1,2,6.0,12,6.0,6.0
490,795,wc9d64f4,Food,0.0,2357.0,0,4,3,choice,2,1,4,-1.0,4,4,1,1,-3.0,-3,-3.0,-3.0
491,796,wc9d64f4,Red,1.0,1162.0,1,5,3,choice,3,1,5,16.0,4,4,1,1,6.0,12,6.0,6.0
492,797,wc9d64f4,Blue,1.0,1062.0,1,6,3,choice,2,1,6,4.0,4,4,2,3,4.0,15,7.0,7.0
493,798,wc9d64f4,Blue,1.0,2101.0,1,1,4,choice,1,1,6,6.0,5,5,1,1,6.0,12,6.0,6.0
494,799,wc9d64f4,Green,1.0,1400.0,0,2,4,choice,3,1,-4,12.0,5,5,2,2,17.0,9,9.0,9.0
495,800,wc9d64f4,Red,1.0,2194.0,0,3,4,choice,2,1,-1,-1.0,5,5,2,2,-1.0,-8,-4.0,-4.0
496,801,wc9d64f4,Scene,0.0,3066.0,0,4,4,choice,2,1,5,5.0,5,5,2,2,5.0,1,-4.0,-4.0
497,803,wc9d64f4,Animal,1.0,1401.0,1,6,4,choice,3,1,1,17.0,5,5,3,4,17.0,12,6.0,6.0
498,804,wc9d64f4,Green,1.0,1578.0,1,1,5,choice,1,1,5,5.0,3,3,1,1,5.0,10,5.0,5.0
499,806,wc9d64f4,Blue,0.0,1650.0,1,3,5,choice,3,1,-3,-3.0,3,3,1,2,-8.0,-16,-8.0,-8.0
500,807,wc9d64f4,Yellow,1.0,1676.0,1,4,5,choice,2,1,6,6.0,3,3,1,1,-1.0,-2,-1.0,-1.0
501,808,wc9d64f4,Food,0.0,1640.0,0,5,5,choice,2,1,8,8.0,3,3,1,1,-1.0,-2,-1.0,-1.0
502,809,wc9d64f4,Scene,1.0,2064.0,1,6,5,choice,3,3,4,4.0,3,3,2,3,-3.0,-6,-3.0,-3.0
503,810,w28f36aa,Object,0.0,2956.0,1,1,2,choice,1,2,-9,-6.0,4,4,1,2,-6.0,-18,-6.0,-6.0
504,811,w28f36aa,Green,1.0,2411.0,0,2,2,choice,1,1,-6,-6.0,4,4,1,1,-6.0,-12,-6.0,-6.0
505,812,w28f36aa,Scene,0.0,3835.0,0,3,2,choice,2,1,5,11.0,4,4,1,1,3.0,-4,3.0,3.0
506,813,w28f36aa,Blue,1.0,2124.0,1,4,2,choice,2,2,3,9.0,4,4,2,2,9.0,6,9.0,9.0
507,814,w28f36aa,Yellow,1.0,2910.0,1,5,2,choice,3,1,1,-1.0,4,4,1,1,-6.0,-15,-6.0,-6.0
508,815,w28f36aa,Food,0.0,2813.0,0,6,2,choice,3,3,2,-3.0,4,4,2,2,0.0,1,-3.0,0.0
509,816,w28f36aa,Object,0.0,4402.0,1,1,3,choice,2,3,-6,-5.0,3,3,1,2,2.0,-5,-5.0,2.0
510,818,w28f36aa,Red,1.0,4248.0,0,3,3,choice,2,2,-1,5.0,3,3,1,1,2.0,-2,5.0,2.0
511,819,w28f36aa,Blue,0.0,3865.0,1,4,3,choice,3,2,-3,-5.0,3,3,2,2,2.0,-7,2.0,2.0
512,820,w28f36aa,Scene,1.0,4582.0,0,5,3,choice,3,2,-1,-8.0,3,3,1,1,-6.0,-12,-3.0,-6.0
513,822,w28f36aa,Green,1.0,2169.0,1,1,4,choice,3,3,1,-15.0,5,5,3,3,-15.0,2,-15.0,-15.0
514,823,w28f36aa,Red,1.0,1639.0,1,2,4,choice,2,2,1,10.0,5,5,1,1,6.0,2,10.0,6.0
515,824,w28f36aa,Animal,1.0,3793.0,0,3,4,choice,3,3,-2,-4.0,5,5,3,3,-4.0,-4,-4.0,-4.0
516,825,w28f36aa,Yellow,0.0,1526.0,1,4,4,choice,1,1,-4,-7.0,5,5,1,1,-7.0,-8,-7.0,-7.0
517,826,w28f36aa,Object,0.0,3044.0,0,5,4,choice,1,1,2,-7.0,5,5,1,1,-7.0,4,-7.0,-7.0
518,827,w28f36aa,Food,0.0,2701.0,1,6,4,choice,2,2,-2,-1.0,5,5,1,1,-5.0,-4,-1.0,-5.0
519,828,w28f36aa,Food,0.0,2968.0,0,1,5,choice,1,1,3,4.0,5,5,1,1,4.0,6,4.0,4.0
520,829,w28f36aa,Yellow,1.0,4910.0,0,2,5,choice,1,1,-4,7.0,5,5,1,1,7.0,-8,7.0,7.0
521,830,w28f36aa,Green,0.0,5381.0,0,3,5,choice,2,2,8,-9.0,5,5,2,2,-9.0,16,-9.0,-9.0
522,831,w28f36aa,Scene,0.0,3377.0,0,4,5,choice,2,2,6,5.0,5,5,2,2,5.0,12,5.0,5.0
523,832,w28f36aa,Animal,1.0,2572.0,0,5,5,choice,3,3,-3,7.0,5,5,2,2,1.0,2,7.0,1.0
524,833,w28f36aa,Red,0.0,2368.0,0,6,5,choice,3,2,2,18.0,5,5,2,2,12.0,12,12.0,12.0
525,834,w67efce7,Animal,0.0,4811.0,1,1,1,choice,1,1,-3,-3.0,6,6,1,1,-3.0,-6,-3.0,-3.0
526,835,w67efce7,Scene,1.0,3434.0,1,2,1,choice,2,1,1,-13.0,6,6,2,2,-13.0,14,-7.0,-7.0
527,836,w67efce7,Blue,1.0,2231.0,1,3,1,choice,1,1,4,4.0,6,6,1,1,4.0,8,4.0,4.0
528,837,w67efce7,Red,0.0,3164.0,1,4,1,choice,2,1,-4,-8.0,6,6,2,2,-8.0,4,-2.0,-2.0
529,838,w67efce7,Object,1.0,3837.0,1,5,1,choice,3,2,1,-3.0,6,6,3,3,-3.0,7,2.0,2.0
530,839,w67efce7,Yellow,0.0,1536.0,1,6,1,choice,3,3,-1,-15.0,6,6,3,3,-15.0,3,-15.0,-15.0
531,840,w67efce7,Food,1.0,3840.0,1,1,2,choice,3,2,2,2.0,5,5,3,3,2.0,11,7.0,7.0
532,842,w67efce7,Green,0.0,1650.0,1,3,2,choice,2,1,-5,-5.0,5,5,2,2,-5.0,-13,-8.0,-8.0
533,844,w67efce7,Object,0.0,2005.0,1,5,2,choice,2,2,-2,-2.0,5,5,2,2,-2.0,-4,-2.0,-2.0
534,845,w67efce7,Blue,1.0,780.0,1,6,2,choice,3,2,3,3.0,5,5,2,2,10.0,13,10.0,10.0
535,847,w67efce7,Animal,0.0,2940.0,1,2,3,choice,3,2,-2,-3.0,5,5,3,3,-3.0,-1,1.0,1.0
536,848,w67efce7,Blue,1.0,2907.0,1,3,3,choice,1,1,6,6.0,5,5,1,1,6.0,12,6.0,6.0
537,849,w67efce7,Green,1.0,814.0,0,4,3,choice,3,2,-4,-4.0,5,5,2,2,3.0,6,3.0,3.0
538,850,w67efce7,Scene,1.0,1652.0,1,5,3,choice,1,1,8,8.0,5,5,1,1,8.0,16,8.0,8.0
539,851,w67efce7,Yellow,0.0,2253.0,1,6,3,choice,2,1,-2,-5.0,5,5,2,2,-5.0,-3,-4.0,-4.0
540,852,w67efce7,Food,1.0,4153.0,1,1,4,choice,3,2,1,2.0,5,5,3,3,2.0,4,6.0,6.0
541,853,w67efce7,Animal,0.0,1958.0,1,2,4,choice,2,1,-2,-14.0,5,5,2,3,-14.0,-11,-9.0,-9.0
542,855,w67efce7,Green,0.0,973.0,1,4,4,choice,2,1,-7,-7.0,5,5,2,2,-7.0,-16,-9.0,-9.0
543,856,w67efce7,Red,1.0,4087.0,0,5,4,choice,3,2,-2,-11.0,5,5,2,2,-9.0,-2,-9.0,-9.0
544,857,w67efce7,Blue,1.0,5370.0,1,6,4,choice,1,1,3,4.0,5,5,1,1,4.0,6,4.0,4.0
545,858,w67efce7,Scene,1.0,3793.0,1,1,5,choice,3,3,4,4.0,6,6,3,3,4.0,11,4.0,4.0
546,859,w67efce7,Green,1.0,5115.0,1,2,5,choice,1,1,7,7.0,6,6,1,1,7.0,14,7.0,7.0
547,860,w67efce7,Red,0.0,4337.0,1,3,5,choice,3,2,-1,-1.0,6,6,3,3,-1.0,-8,-7.0,-7.0
548,861,w67efce7,Yellow,0.0,2844.0,1,4,5,choice,2,1,-7,-7.0,6,6,2,2,-7.0,-5,2.0,2.0
549,862,w67efce7,Food,0.0,2494.0,1,5,5,choice,2,2,-2,-2.0,6,6,2,2,-2.0,-4,-2.0,-2.0
550,863,w67efce7,Animal,0.0,6074.0,1,6,5,choice,1,1,-3,-3.0,6,6,1,1,-3.0,-6,-3.0,-3.0
551,870,we0e98d2,Scene,1.0,3790.0,1,1,1,choice,2,4,1,1.0,6,6,2,2,1.0,2,1.0,1.0
552,871,we0e98d2,Yellow,0.0,6423.0,1,2,1,choice,1,3,-4,-4.0,6,6,1,1,-4.0,-4,-4.0,-4.0
553,873,we0e98d2,Object,1.0,3166.0,1,4,1,choice,1,4,2,2.0,6,6,1,1,2.0,4,2.0,2.0
554,874,we0e98d2,Green,1.0,4471.0,1,5,1,choice,2,3,4,4.0,6,6,2,2,4.0,-1,4.0,4.0
555,875,we0e98d2,Red,1.0,3457.0,1,6,1,choice,3,3,1,1.0,6,6,3,3,1.0,16,8.0,8.0
556,876,we0e98d2,Yellow,1.0,4005.0,0,1,2,choice,2,3,-4,-4.0,6,6,2,2,-4.0,-8,-4.0,-4.0
557,877,we0e98d2,Blue,1.0,4794.0,1,2,2,choice,3,3,1,1.0,6,6,3,3,1.0,2,1.0,1.0
558,878,we0e98d2,Object,0.0,3568.0,0,3,2,choice,3,4,1,1.0,6,6,3,3,1.0,2,1.0,1.0
559,879,we0e98d2,Animal,0.0,3900.0,1,4,2,choice,1,4,-9,-9.0,6,6,1,1,-9.0,-18,-9.0,-9.0
560,880,we0e98d2,Scene,1.0,2560.0,1,5,2,choice,2,4,1,1.0,6,6,2,2,1.0,2,1.0,1.0
561,881,we0e98d2,Green,0.0,2758.0,1,6,2,choice,1,1,-4,-4.0,6,6,1,1,-4.0,-8,-4.0,-4.0
562,882,we0e98d2,Red,1.0,5857.0,1,1,3,choice,2,2,2,2.0,6,6,2,2,2.0,4,2.0,2.0
563,883,we0e98d2,Object,0.0,4167.0,1,2,3,choice,1,1,-2,-2.0,6,6,1,1,-2.0,-4,-2.0,-2.0
564,884,we0e98d2,Food,1.0,4843.0,1,3,3,choice,3,3,2,2.0,6,6,3,3,2.0,4,2.0,2.0
565,885,we0e98d2,Blue,1.0,1882.0,1,4,3,choice,1,1,4,4.0,6,6,1,1,4.0,8,4.0,4.0
566,886,we0e98d2,Scene,1.0,2079.0,1,5,3,choice,2,2,5,5.0,6,6,2,2,5.0,4,5.0,5.0
567,887,we0e98d2,Green,0.0,2544.0,1,6,3,choice,3,2,-1,-1.0,6,6,3,3,-1.0,-8,-7.0,-7.0
568,888,we0e98d2,Scene,1.0,2905.0,1,1,4,choice,2,2,1,1.0,6,6,2,2,1.0,2,1.0,1.0
569,889,we0e98d2,Animal,0.0,2304.0,1,2,4,choice,1,1,-3,-3.0,6,6,1,1,-3.0,-6,-3.0,-3.0
570,890,we0e98d2,Red,1.0,2034.0,1,3,4,choice,1,1,8,8.0,6,6,1,1,8.0,16,8.0,8.0
571,891,we0e98d2,Blue,0.0,3206.0,1,4,4,choice,3,3,-1,-1.0,6,6,3,3,-1.0,-2,-1.0,-1.0
572,892,we0e98d2,Food,1.0,4069.0,1,5,4,choice,3,3,5,5.0,6,6,3,3,5.0,10,5.0,5.0
573,893,we0e98d2,Yellow,0.0,3329.0,1,6,4,choice,2,2,-4,-4.0,6,6,2,2,-4.0,-8,-4.0,-4.0
574,894,we0e98d2,Object,,,0,1,5,choice,3,2,1,1.0,6,6,3,3,1.0,0,-1.0,-1.0
575,895,we0e98d2,Blue,0.0,1996.0,1,2,5,choice,1,1,-6,-6.0,6,6,1,1,-6.0,-12,-6.0,-6.0
576,896,we0e98d2,Yellow,1.0,3547.0,1,3,5,choice,3,3,2,2.0,6,6,3,3,2.0,4,2.0,2.0
577,897,we0e98d2,Red,0.0,3068.0,1,4,5,choice,2,2,-1,-1.0,6,6,2,2,-1.0,-4,-1.0,-1.0
578,898,we0e98d2,Food,0.0,2753.0,1,5,5,choice,1,1,-7,-7.0,6,6,1,1,-7.0,-14,-7.0,-7.0
579,899,we0e98d2,Animal,1.0,2752.0,1,6,5,choice,2,2,1,1.0,6,6,2,2,1.0,2,1.0,1.0
580,900,w7978f92,Animal,0.0,2856.0,1,1,1,choice,3,2,-1,-3.0,6,6,3,3,-3.0,-9,-8.0,-8.0
581,901,w7978f92,Object,1.0,2714.0,1,2,1,choice,2,2,4,5.0,6,6,2,2,5.0,12,5.0,5.0
582,902,w7978f92,Yellow,0.0,3555.0,0,3,1,choice,1,1,7,5.0,6,6,1,1,5.0,7,5.0,5.0
583,903,w7978f92,Green,0.0,3403.0,1,4,1,choice,3,1,-3,-1.0,6,6,3,3,-1.0,-8,-5.0,-5.0
584,904,w7978f92,Red,1.0,2963.0,1,5,1,choice,2,2,5,4.0,6,6,2,2,4.0,10,4.0,4.0
585,905,w7978f92,Scene,0.0,4209.0,0,6,1,choice,1,1,6,6.0,6,6,1,1,6.0,6,6.0,6.0
586,906,w7978f92,Yellow,1.0,2747.0,1,1,2,choice,2,2,1,1.0,6,6,2,2,1.0,2,1.0,1.0
587,907,w7978f92,Green,0.0,3306.0,1,2,2,choice,3,2,-6,-6.0,6,6,3,3,-6.0,-4,2.0,2.0
588,908,w7978f92,Scene,0.0,3851.0,1,3,2,choice,1,1,-8,-8.0,6,6,1,1,-8.0,-8,-8.0,-8.0
589,909,w7978f92,Blue,1.0,4060.0,1,4,2,choice,1,1,5,5.0,6,6,1,1,5.0,10,5.0,5.0
590,910,w7978f92,Food,1.0,2634.0,1,5,2,choice,2,2,6,6.0,6,6,2,2,6.0,12,6.0,6.0
591,911,w7978f92,Object,1.0,4859.0,1,6,2,choice,3,3,2,2.0,6,6,3,3,2.0,4,2.0,2.0
592,912,w7978f92,Yellow,0.0,3488.0,1,1,3,choice,1,1,-3,-3.0,6,6,1,1,-3.0,-3,-3.0,-3.0
593,913,w7978f92,Blue,1.0,3118.0,1,2,3,choice,3,1,5,5.0,6,6,3,3,5.0,19,6.0,6.0
594,914,w7978f92,Red,0.0,3506.0,1,3,3,choice,2,2,-3,-3.0,6,6,2,2,-3.0,-6,-3.0,-3.0
595,915,w7978f92,Food,1.0,2826.0,1,4,3,choice,1,1,6,6.0,6,6,1,1,6.0,12,6.0,6.0
596,916,w7978f92,Animal,0.0,3933.0,1,5,3,choice,2,1,-6,-6.0,6,6,2,2,-6.0,4,2.0,2.0
597,917,w7978f92,Scene,1.0,3959.0,0,6,3,choice,3,2,-1,-1.0,6,6,3,3,-1.0,-6,2.0,2.0
598,918,w7978f92,Blue,0.0,4337.0,0,1,4,choice,1,1,2,3.0,5,5,1,2,3.0,2,3.0,3.0
599,919,w7978f92,Yellow,1.0,4065.0,0,2,4,choice,3,2,-2,0.0,5,5,2,2,5.0,6,5.0,5.0
600,920,w7978f92,Food,1.0,1759.0,1,3,4,choice,2,1,3,3.0,5,5,1,1,8.0,16,8.0,8.0
601,921,w7978f92,Scene,0.0,3635.0,0,4,4,choice,3,2,1,4.0,5,5,3,3,4.0,7,1.0,1.0
602,922,w7978f92,Red,1.0,3630.0,1,5,4,choice,2,1,1,1.0,5,5,2,2,1.0,9,8.0,8.0
603,923,w7978f92,Animal,1.0,3415.0,0,6,4,choice,1,1,-3,-3.0,5,5,1,2,-3.0,-6,-3.0,-3.0
604,924,w7978f92,Animal,0.0,3374.0,1,1,5,choice,1,1,-6,6.0,6,6,1,1,6.0,-6,6.0,6.0
605,925,w7978f92,Blue,1.0,5030.0,0,2,5,choice,3,1,-4,9.0,6,6,3,3,9.0,-4,-6.0,-6.0
606,926,w7978f92,Food,1.0,3082.0,1,3,5,choice,3,2,2,3.0,6,6,3,3,3.0,11,9.0,9.0
607,927,w7978f92,Red,1.0,1418.0,1,4,5,choice,2,2,2,13.0,6,6,2,2,13.0,4,13.0,13.0
608,928,w7978f92,Object,1.0,2911.0,1,5,5,choice,2,2,6,17.0,6,6,2,2,17.0,3,17.0,17.0
609,929,w7978f92,Green,1.0,5420.0,1,6,5,choice,1,1,4,4.0,6,6,1,1,4.0,8,4.0,4.0
610,932,wf3a15bc,Yellow,0.0,5247.0,1,3,1,choice,1,1,-6,-2.0,2,2,1,1,-2.0,-6,-2.0,-2.0
611,936,wf3a15bc,Object,0.0,1362.0,1,1,2,choice,2,1,-5,9.0,4,4,2,2,9.0,-12,4.0,4.0
612,938,wf3a15bc,Animal,1.0,2963.0,0,3,2,choice,1,1,-4,-3.0,4,4,1,1,-3.0,-8,-3.0,-3.0
613,939,wf3a15bc,Scene,0.0,4311.0,0,4,2,choice,3,1,1,7.0,4,4,1,1,4.0,3,4.0,4.0
614,940,wf3a15bc,Green,1.0,3165.0,0,5,2,choice,3,2,-3,4.0,4,4,2,2,1.0,-20,1.0,1.0
615,945,wf3a15bc,Scene,1.0,1824.0,0,4,3,choice,2,2,-1,6.0,3,3,1,2,4.0,4,4.0,4.0
616,946,wf3a15bc,Blue,0.0,2891.0,1,5,3,choice,2,2,-3,-3.0,3,3,2,2,-3.0,-3,-7.0,-7.0
617,947,wf3a15bc,Yellow,1.0,3036.0,1,6,3,choice,1,1,2,3.0,3,3,1,2,3.0,2,3.0,3.0
618,949,wf3a15bc,Red,1.0,3218.0,1,2,4,choice,3,1,3,4.0,2,2,2,2,9.0,-14,5.0,5.0
619,953,wf3a15bc,Food,1.0,2366.0,0,6,4,choice,2,2,-6,-4.0,2,2,1,1,5.0,-18,5.0,5.0
620,954,w65ae27b,Blue,1.0,2963.0,0,1,1,choice,2,4,-1,-14.0,2,2,1,1,-8.0,-2,-14.0,-8.0
621,955,w65ae27b,Green,0.0,1569.0,0,2,1,choice,1,3,5,-4.0,2,2,1,1,-4.0,10,-4.0,-4.0
622,957,w65ae27b,Object,1.0,1051.0,0,4,1,choice,2,4,-5,-7.0,2,2,1,1,-8.0,-10,-7.0,-8.0
623,958,w65ae27b,Animal,1.0,1465.0,0,5,1,choice,3,4,-1,-9.0,2,2,1,1,-4.0,-2,-9.0,-4.0
624,960,w65ae27b,Yellow,1.0,2368.0,1,1,2,choice,3,1,3,-4.0,4,4,1,1,-7.0,-14,-7.0,-7.0
625,961,w65ae27b,Blue,0.0,2551.0,1,2,2,choice,1,1,-5,-5.0,4,4,1,1,-5.0,-10,-5.0,-5.0
626,962,w65ae27b,Object,0.0,2689.0,0,3,2,choice,2,1,2,9.0,4,4,1,1,5.0,-6,5.0,5.0
627,964,w65ae27b,Green,1.0,1302.0,1,5,2,choice,2,2,7,14.0,4,4,2,2,14.0,12,14.0,14.0
628,965,w65ae27b,Scene,0.0,1902.0,1,6,2,choice,3,3,-3,-3.0,4,4,3,3,-3.0,-6,-3.0,-3.0
629,967,w65ae27b,Animal,0.0,3267.0,1,2,3,choice,1,2,-2,-4.0,3,3,1,1,-4.0,-4,-4.0,-4.0
630,968,w65ae27b,Green,1.0,2253.0,0,3,3,choice,3,3,-1,0.0,3,3,2,2,1.0,-2,0.0,1.0
631,969,w65ae27b,Yellow,1.0,972.0,0,4,3,choice,2,2,-5,-1.0,3,3,1,1,-6.0,-10,-1.0,-6.0
632,970,w65ae27b,Object,1.0,880.0,1,5,3,choice,3,3,2,2.0,3,3,2,2,-1.0,4,2.0,-1.0
633,972,w65ae27b,Scene,1.0,1846.0,0,1,4,choice,3,1,-1,4.0,2,2,1,1,5.0,-4,5.0,5.0
634,973,w65ae27b,Red,1.0,1614.0,0,2,4,choice,1,2,-2,5.0,2,2,1,1,5.0,-4,5.0,5.0
635,977,w65ae27b,Green,1.0,543.0,1,6,4,choice,2,2,7,-8.0,2,2,1,1,-1.0,-1,-1.0,-1.0
636,978,w65ae27b,Yellow,1.0,1680.0,1,1,5,choice,1,2,6,8.0,2,2,1,1,8.0,12,8.0,8.0
637,980,w65ae27b,Scene,1.0,1038.0,0,3,5,choice,1,3,-5,5.0,2,2,1,2,5.0,-5,5.0,5.0
638,981,w65ae27b,Food,1.0,1660.0,1,4,5,choice,3,3,5,7.0,2,2,1,1,8.0,3,2.0,8.0
639,1014,w5e13b84,Animal,1.0,6727.0,1,1,1,choice,2,4,6,0.0,1,1,1,3,-3.0,12,0.0,-3.0
640,1019,w5e13b84,Green,0.0,1175.0,1,6,1,choice,2,4,-1,-12.0,1,1,1,1,-3.0,-2,-12.0,-3.0
641,1022,w5e13b84,Green,0.0,1245.0,0,3,2,choice,3,2,5,3.0,3,3,2,2,-1.0,4,-1.0,-1.0
642,1023,w5e13b84,Scene,1.0,399.0,0,4,2,choice,3,1,-2,10.0,3,3,1,1,8.0,6,8.0,8.0
643,1024,w5e13b84,Yellow,1.0,1341.0,1,5,2,choice,2,2,2,10.0,3,3,1,1,6.0,7,10.0,6.0
644,1025,w5e13b84,Food,1.0,1211.0,0,6,2,choice,2,2,-4,-3.0,3,3,2,2,-3.0,-8,-3.0,-3.0
645,1027,w5e13b84,Blue,0.0,684.0,1,2,3,choice,2,2,-7,-7.0,3,3,2,2,-7.0,-14,-7.0,-7.0
646,1028,w5e13b84,Animal,1.0,1067.0,1,3,3,choice,3,2,1,3.0,3,3,2,2,6.0,-1,6.0,6.0
647,1029,w5e13b84,Object,1.0,865.0,0,4,3,choice,2,2,-2,-16.0,3,3,1,1,-9.0,-4,-16.0,-9.0
648,1030,w5e13b84,Yellow,1.0,1815.0,0,5,3,choice,3,2,-2,2.0,3,3,1,1,4.0,6,-3.0,4.0
649,1032,w5e13b84,Scene,1.0,5069.0,1,1,4,choice,1,1,5,-7.0,4,4,1,1,-7.0,10,-7.0,-7.0
650,1033,w5e13b84,Object,1.0,1843.0,0,2,4,choice,3,2,-1,17.0,4,4,1,1,7.0,-11,13.0,7.0
651,1035,w5e13b84,Red,0.0,1420.0,0,4,4,choice,3,2,2,-12.0,4,4,2,2,-16.0,-8,-16.0,-16.0
652,1036,w5e13b84,Yellow,1.0,649.0,0,5,4,choice,2,2,-2,11.0,4,4,2,2,11.0,-4,11.0,11.0
653,1037,w5e13b84,Animal,1.0,1310.0,0,6,4,choice,2,2,-7,-5.0,4,4,2,2,-5.0,-14,-5.0,-5.0
654,1043,w5e13b84,Green,0.0,1606.0,0,6,5,choice,1,2,4,9.0,1,1,1,1,9.0,4,9.0,9.0
655,1047,wf1704eb,Food,1.0,2049.0,1,4,1,choice,3,1,2,0.0,3,3,3,3,0.0,10,4.0,4.0
656,1048,wf1704eb,Yellow,1.0,836.0,1,5,1,choice,3,1,2,5.0,3,3,1,1,4.0,3,4.0,4.0
657,1050,wf1704eb,Food,1.0,4245.0,0,1,2,choice,2,1,-4,-6.0,6,6,2,2,-6.0,-4,-9.0,-9.0
658,1051,wf1704eb,Animal,0.0,3436.0,0,2,2,choice,1,1,3,-7.0,6,6,1,1,-7.0,3,-7.0,-7.0
659,1052,wf1704eb,Scene,0.0,4637.0,1,3,2,choice,3,1,-1,-1.0,6,6,3,3,-1.0,-1,-3.0,-3.0
660,1053,wf1704eb,Green,0.0,2683.0,1,4,2,choice,1,1,-7,-7.0,6,6,1,1,-7.0,-7,-7.0,-7.0
661,1054,wf1704eb,Red,1.0,1561.0,1,5,2,choice,2,1,3,0.0,6,6,2,2,0.0,3,3.0,3.0
662,1055,wf1704eb,Blue,0.0,2286.0,0,6,2,choice,3,1,2,-7.0,6,6,3,3,-7.0,2,9.0,9.0
663,1057,wf1704eb,Animal,1.0,2700.0,1,2,3,choice,1,1,2,2.0,3,3,1,1,2.0,2,2.0,2.0
664,1058,wf1704eb,Red,0.0,6532.0,0,3,3,choice,3,1,1,-11.0,3,3,2,3,-5.0,-12,-7.0,-7.0
665,1060,wf1704eb,Green,1.0,2049.0,1,5,3,choice,2,1,5,13.0,3,3,1,2,9.0,14,9.0,9.0
666,1061,wf1704eb,Scene,1.0,1044.0,0,6,3,choice,3,2,-6,4.0,3,3,2,2,2.0,-4,2.0,2.0
667,1062,wf1704eb,Red,1.0,5750.0,1,1,4,choice,1,1,9,7.0,4,4,1,1,7.0,9,7.0,7.0
668,1063,wf1704eb,Blue,0.0,4539.0,1,2,4,choice,3,1,-2,13.0,4,4,2,2,16.0,7,7.0,7.0
669,1065,wf1704eb,Yellow,1.0,3367.0,0,4,4,choice,2,1,-5,-8.0,4,4,1,2,1.0,-2,1.0,1.0
670,1066,wf1704eb,Animal,1.0,1647.0,0,5,4,choice,2,1,-2,10.0,4,4,2,2,10.0,6,1.0,1.0
671,1068,wf1704eb,Green,0.0,6783.0,1,1,5,choice,3,1,-2,-5.0,6,6,3,3,-5.0,-1,-4.0,-4.0
672,1069,wf1704eb,Animal,0.0,4608.0,1,2,5,choice,3,1,-1,-1.0,6,6,3,3,-1.0,1,-4.0,-4.0
673,1070,wf1704eb,Food,1.0,1132.0,0,3,5,choice,2,1,-4,-4.0,6,6,2,2,-4.0,2,1.0,1.0
674,1071,wf1704eb,Object,1.0,6501.0,1,4,5,choice,1,1,7,4.0,6,6,1,1,4.0,7,4.0,4.0
675,1072,wf1704eb,Red,,,0,5,5,choice,1,1,9,9.0,6,6,1,1,9.0,9,9.0,9.0
676,1073,wf1704eb,Yellow,1.0,1816.0,0,6,5,choice,2,1,-5,-5.0,6,6,2,2,-5.0,2,1.0,1.0
677,1075,we869265,Blue,1.0,4048.0,0,2,1,choice,1,4,-3,-3.0,4,4,1,1,-3.0,-3,-3.0,-3.0
678,1077,we869265,Food,0.0,2983.0,0,4,1,choice,2,1,1,2.0,4,4,1,1,3.0,3,3.0,3.0
679,1079,we869265,Red,,,0,6,1,choice,3,3,1,2.0,4,4,3,3,2.0,3,2.0,2.0
680,1080,we869265,Yellow,1.0,2254.0,1,1,2,choice,2,4,1,1.0,6,6,2,2,1.0,2,1.0,1.0
681,1081,we869265,Green,0.0,4203.0,0,2,2,choice,3,4,1,1.0,6,6,3,3,1.0,-5,1.0,1.0
682,1082,we869265,Red,,,0,3,2,choice,1,2,-9,-9.0,6,6,1,1,-9.0,-18,-9.0,-9.0
683,1083,we869265,Scene,1.0,5227.0,1,4,2,choice,3,3,3,3.0,6,6,3,3,3.0,-1,-4.0,-4.0
684,1084,we869265,Object,,,0,5,2,choice,2,3,-2,-2.0,6,6,2,2,-2.0,-4,-2.0,-2.0
685,1085,we869265,Animal,1.0,2795.0,0,6,2,choice,1,1,-8,-8.0,6,6,1,1,-8.0,-16,-8.0,-8.0
686,1086,we869265,Food,0.0,6501.0,1,1,3,choice,1,1,-6,-6.0,4,4,1,1,-6.0,-6,-6.0,-6.0
687,1087,we869265,Green,1.0,6298.0,0,2,3,choice,3,1,-5,-4.0,4,4,2,2,-6.0,3,0.0,0.0
688,1088,we869265,Blue,,,0,3,3,choice,2,2,2,2.0,4,4,1,1,3.0,4,2.0,3.0
689,1090,we869265,Object,0.0,2276.0,0,5,3,choice,3,2,2,12.0,4,4,2,2,10.0,20,10.0,10.0
690,1091,we869265,Yellow,1.0,2419.0,1,6,3,choice,1,1,7,7.0,4,4,1,1,7.0,14,7.0,7.0
691,1092,we869265,Object,0.0,3674.0,1,1,4,choice,2,2,-2,-2.0,6,6,2,2,-2.0,-4,-2.0,-2.0
692,1093,we869265,Green,,,0,2,4,choice,1,1,-9,-9.0,6,6,1,1,-9.0,-18,-9.0,-9.0
693,1094,we869265,Blue,1.0,2490.0,1,3,4,choice,3,3,1,1.0,6,6,3,3,1.0,-5,1.0,1.0
694,1095,we869265,Food,1.0,4686.0,0,4,4,choice,1,1,-8,-8.0,6,6,1,1,-8.0,-16,-8.0,-8.0
695,1096,we869265,Red,1.0,3116.0,1,5,4,choice,2,2,2,2.0,6,6,2,2,2.0,4,2.0,2.0
696,1097,we869265,Animal,0.0,3183.0,0,6,4,choice,3,2,4,4.0,6,6,3,3,4.0,1,-3.0,-3.0
697,1098,we869265,Red,1.0,2787.0,1,1,5,choice,1,1,3,3.0,6,6,1,1,3.0,6,3.0,3.0
698,1099,we869265,Blue,1.0,3385.0,1,2,5,choice,2,2,2,2.0,6,6,2,2,2.0,11,9.0,9.0
699,1100,we869265,Yellow,1.0,2357.0,0,3,5,choice,3,3,-1,-1.0,6,6,3,3,-1.0,-7,-1.0,-1.0
700,1101,we869265,Food,1.0,3636.0,1,4,5,choice,3,2,1,1.0,6,6,3,3,1.0,4,-4.0,-4.0
701,1102,we869265,Scene,1.0,2264.0,1,5,5,choice,2,2,7,7.0,6,6,2,2,7.0,14,7.0,7.0
702,1103,we869265,Animal,0.0,4309.0,1,6,5,choice,1,1,-4,-4.0,6,6,1,1,-4.0,-8,-4.0,-4.0
703,1128,we0078b2,Animal,0.0,2509.0,1,1,1,choice,3,2,-4,-7.0,4,4,2,2,-7.0,5,14.0,9.0
704,1130,we0078b2,Green,1.0,2111.0,1,3,1,choice,1,2,9,0.0,4,4,1,1,0.0,18,9.0,9.0
705,1131,we0078b2,Scene,1.0,2371.0,0,4,1,choice,2,2,-2,0.0,4,4,2,2,0.0,-4,8.0,8.0
706,1132,we0078b2,Yellow,0.0,4285.0,1,5,1,choice,2,1,-3,0.0,4,4,1,1,0.0,0,3.0,3.0
707,1133,we0078b2,Blue,0.0,1303.0,1,6,1,choice,3,3,-4,-7.0,4,4,2,2,-7.0,-17,-2.0,-2.0
708,1134,we0078b2,Red,1.0,4383.0,0,1,2,choice,3,2,-2,-8.0,5,5,2,2,-3.0,-1,5.0,5.0
709,1135,we0078b2,Green,0.0,3110.0,1,2,2,choice,2,2,-2,-8.0,5,5,2,2,-8.0,4,-3.0,-3.0
710,1136,we0078b2,Yellow,0.0,6347.0,0,3,2,choice,1,1,3,-3.0,5,5,1,2,-3.0,6,-3.0,-3.0
711,1137,we0078b2,Animal,1.0,3204.0,0,4,2,choice,1,2,-4,-3.0,5,5,1,2,-3.0,-8,-3.0,-3.0
712,1138,we0078b2,Object,0.0,4873.0,0,5,2,choice,3,1,2,-11.0,5,5,3,3,-11.0,5,-3.0,-3.0
713,1139,we0078b2,Food,1.0,4688.0,1,6,2,choice,2,1,1,-5.0,5,5,1,1,0.0,12,5.0,5.0
714,1140,we0078b2,Animal,0.0,4321.0,1,1,3,choice,1,1,-4,-3.0,5,5,1,1,-3.0,-8,-3.0,-3.0
715,1141,we0078b2,Scene,0.0,5553.0,0,2,3,choice,3,3,1,-9.0,5,5,3,3,-9.0,2,-3.0,-3.0
716,1142,we0078b2,Yellow,0.0,6942.0,0,3,3,choice,2,2,7,-1.0,5,5,2,2,-1.0,14,2.0,2.0
717,1143,we0078b2,Green,1.0,3715.0,1,4,3,choice,3,3,1,-3.0,5,5,2,2,-3.0,-1,4.0,0.0
718,1144,we0078b2,Red,0.0,2481.0,1,5,3,choice,1,1,-9,-9.0,5,5,1,1,-9.0,-18,-9.0,-9.0
719,1145,we0078b2,Object,0.0,4028.0,0,6,3,choice,2,1,2,-1.0,5,5,1,1,-1.0,1,-1.0,-1.0
720,1147,we0078b2,Food,,,0,2,4,choice,3,2,-3,-9.0,4,4,1,1,0.0,1,-4.0,1.0
721,1148,we0078b2,Object,0.0,2860.0,1,3,4,choice,2,2,-3,0.0,4,4,2,2,0.0,-3,9.0,9.0
722,1149,we0078b2,Green,1.0,3414.0,1,4,4,choice,1,1,9,0.0,4,4,1,1,0.0,18,1.0,1.0
723,1150,we0078b2,Red,1.0,5011.0,0,5,4,choice,3,2,-1,-5.0,4,4,2,2,0.0,2,0.0,5.0
724,1151,we0078b2,Scene,1.0,3849.0,1,6,4,choice,1,1,8,0.0,4,4,1,1,0.0,16,5.0,5.0
725,1152,we0078b2,Food,0.0,3037.0,0,1,5,choice,2,2,7,-1.0,5,5,1,1,0.0,6,3.0,4.0
726,1153,we0078b2,Yellow,0.0,4940.0,0,2,5,choice,2,2,1,-1.0,5,5,1,1,0.0,2,2.0,3.0
727,1154,we0078b2,Red,0.0,4375.0,0,3,5,choice,1,1,3,-5.0,5,5,1,1,-5.0,6,-5.0,-5.0
728,1155,we0078b2,Animal,1.0,3066.0,1,4,5,choice,3,2,1,-9.0,5,5,3,3,-9.0,6,-2.0,-2.0
729,1156,we0078b2,Scene,0.0,3846.0,1,5,5,choice,1,1,-7,-9.0,5,5,1,1,-9.0,-14,-9.0,-9.0
730,1157,we0078b2,Blue,0.0,1850.0,1,6,5,choice,3,2,-3,-13.0,5,5,3,3,-13.0,-10,-13.0,-13.0
731,1158,w44a1a9f,Object,1.0,3514.0,1,1,1,choice,2,4,2,-7.0,4,4,1,1,-7.0,-3,-4.0,-7.0
732,1159,w44a1a9f,Animal,1.0,2090.0,1,2,1,choice,1,2,3,0.0,4,4,1,1,0.0,6,5.0,5.0
733,1161,w44a1a9f,Yellow,0.0,879.0,0,4,1,choice,3,3,1,-10.0,4,4,3,3,-10.0,-5,-10.0,-10.0
734,1162,w44a1a9f,Scene,0.0,5534.0,1,5,1,choice,3,13,-1,-6.0,4,4,2,2,-6.0,-2,-2.0,-8.0
735,1163,w44a1a9f,Green,1.0,1335.0,1,6,1,choice,2,2,7,-3.0,4,4,1,1,-3.0,14,-3.0,-3.0
736,1170,w44a1a9f,Animal,1.0,3507.0,1,1,4,choice,3,1,2,0.0,2,2,1,1,0.0,3,3.0,3.0
737,1171,w44a1a9f,Food,1.0,1398.0,1,2,4,choice,2,1,2,0.0,2,2,1,1,0.0,8,5.0,5.0
738,1175,w44a1a9f,Red,1.0,2029.0,1,6,4,choice,3,1,2,-9.0,2,2,1,1,0.0,1,5.0,5.0
739,1178,w44a1a9f,Scene,1.0,1009.0,1,3,5,choice,2,2,6,0.0,1,1,1,1,0.0,15,9.0,9.0
740,1181,w44a1a9f,Blue,1.0,1858.0,1,6,5,choice,2,2,4,0.0,1,1,1,1,0.0,8,9.0,9.0
741,1182,w6e46ddf,Scene,1.0,2658.0,0,1,1,choice,3,3,-3,-6.0,4,4,2,2,-11.0,-6,-6.0,-11.0
742,1183,w6e46ddf,Animal,0.0,2819.0,0,2,1,choice,1,4,3,0.0,4,4,1,2,0.0,3,5.0,5.0
743,1184,w6e46ddf,Object,1.0,1036.0,0,3,1,choice,2,4,-7,-6.0,4,4,1,1,3.0,-7,-6.0,3.0
744,1186,w6e46ddf,Yellow,1.0,698.0,1,5,1,choice,3,3,1,-15.0,4,4,2,3,-6.0,7,-11.0,-11.0
745,1188,w6e46ddf,Green,1.0,1692.0,0,1,2,choice,2,3,-5,-1.0,4,4,2,2,-1.0,8,5.0,5.0
746,1189,w6e46ddf,Scene,0.0,1007.0,1,2,2,choice,1,3,-6,2.0,4,4,1,2,2.0,-12,2.0,2.0
747,1191,w6e46ddf,Red,1.0,472.0,1,4,2,choice,1,1,2,-6.0,4,4,1,3,-6.0,2,-6.0,-6.0
748,1192,w6e46ddf,Animal,1.0,572.0,1,5,2,choice,3,3,1,4.0,4,4,2,2,-1.0,0,10.0,5.0
749,1193,w6e46ddf,Blue,1.0,1441.0,0,6,2,choice,3,2,-4,10.0,4,4,1,1,2.0,-15,7.0,2.0
750,1194,w6e46ddf,Food,1.0,1068.0,1,1,3,choice,2,2,3,-2.0,4,4,2,2,-2.0,6,-2.0,-2.0
751,1197,w6e46ddf,Animal,1.0,619.0,1,4,3,choice,3,2,4,-1.0,4,4,2,3,-3.0,-9,-6.0,-6.0
752,1199,w6e46ddf,Blue,1.0,832.0,0,6,3,choice,3,1,-1,-12.0,4,4,2,2,-3.0,-10,-6.0,-6.0
753,1200,w6e46ddf,Yellow,1.0,1217.0,1,1,4,choice,2,2,2,-10.0,5,5,2,3,-10.0,-10,-3.0,-3.0
754,1202,w6e46ddf,Green,0.0,1841.0,0,3,4,choice,3,1,1,11.0,5,5,2,2,7.0,-6,3.0,3.0
755,1203,w6e46ddf,Scene,1.0,3459.0,0,4,4,choice,1,1,-6,3.0,5,5,1,1,3.0,-12,3.0,3.0
756,1205,w6e46ddf,Object,0.0,6299.0,1,6,4,choice,2,2,-2,-3.0,5,5,2,2,-3.0,-4,-3.0,-3.0
757,1207,w6e46ddf,Scene,1.0,2340.0,0,2,5,choice,3,1,-2,-5.0,3,3,1,1,-9.0,7,-9.0,-9.0
758,1209,w6e46ddf,Food,1.0,1487.0,1,4,5,choice,2,2,1,-3.0,3,3,2,3,-3.0,10,-3.0,-3.0
759,1210,w6e46ddf,Red,0.0,1486.0,0,5,5,choice,2,1,4,-2.0,3,3,1,2,-8.0,18,-8.0,-8.0
760,1212,w977f12b,Scene,1.0,2284.0,0,1,1,choice,3,2,-1,0.0,5,5,2,2,0.0,2,0.0,0.0
761,1214,w977f12b,Animal,,,0,3,1,choice,1,2,4,-4.0,5,5,1,1,-4.0,4,-4.0,-4.0
762,1215,w977f12b,Object,0.0,1567.0,1,4,1,choice,2,2,-5,-5.0,5,5,2,2,-5.0,-10,-5.0,-5.0
763,1216,w977f12b,Red,0.0,2827.0,0,5,1,choice,3,2,2,-6.0,5,5,3,3,-6.0,0,-2.0,-2.0
764,1217,w977f12b,Green,1.0,6743.0,0,6,1,choice,2,2,-2,-3.0,5,5,2,2,-3.0,-4,-3.0,-3.0
765,1219,w977f12b,Animal,1.0,7270.0,1,2,2,choice,2,2,3,5.0,5,5,1,1,1.0,6,5.0,1.0
766,1220,w977f12b,Food,0.0,4204.0,0,3,2,choice,3,2,1,-8.0,5,5,3,3,-8.0,1,-10.0,-10.0
767,1221,w977f12b,Object,0.0,7147.0,1,4,2,choice,1,1,-9,-9.0,5,5,1,1,-9.0,-18,-9.0,-9.0
768,1222,w977f12b,Green,1.0,1180.0,1,5,2,choice,2,2,1,3.0,5,5,2,2,3.0,0,3.0,3.0
769,1223,w977f12b,Blue,0.0,4420.0,0,6,2,choice,3,2,2,-12.0,5,5,2,2,-16.0,-3,-5.0,-9.0
770,1224,w977f12b,Red,1.0,2354.0,1,1,3,choice,3,3,4,8.0,6,6,3,3,8.0,8,8.0,8.0
771,1225,w977f12b,Scene,0.0,4766.0,1,2,3,choice,2,2,-5,-1.0,6,6,2,2,-1.0,-10,-1.0,-1.0
772,1226,w977f12b,Blue,0.0,5828.0,0,3,3,choice,2,2,1,0.0,6,6,2,2,0.0,2,0.0,0.0
773,1227,w977f12b,Food,1.0,7227.0,0,4,3,choice,3,3,-1,-2.0,6,6,3,3,-2.0,-2,-2.0,-2.0
774,1228,w977f12b,Animal,1.0,5676.0,1,5,3,choice,1,1,5,5.0,6,6,1,1,5.0,10,5.0,5.0
775,1229,w977f12b,Yellow,0.0,4981.0,1,6,3,choice,1,1,-6,-6.0,6,6,1,1,-6.0,-12,-6.0,-6.0
776,1230,w977f12b,Object,,,0,1,4,choice,3,2,3,6.0,5,5,2,2,7.0,18,7.0,7.0
777,1231,w977f12b,Yellow,0.0,2040.0,0,2,4,choice,3,3,4,-6.0,5,5,3,3,-6.0,8,-6.0,-6.0
778,1232,w977f12b,Food,1.0,3356.0,1,3,4,choice,2,2,5,-3.0,5,5,2,2,-3.0,10,-3.0,-3.0
779,1234,w977f12b,Green,1.0,1179.0,1,5,4,choice,2,2,1,1.0,5,5,2,2,1.0,2,1.0,1.0
780,1235,w977f12b,Scene,0.0,1570.0,1,6,4,choice,1,1,-9,-9.0,5,5,1,1,-9.0,-18,-9.0,-9.0
781,1236,w977f12b,Object,0.0,2654.0,0,1,5,choice,2,2,3,-13.0,5,5,1,1,-4.0,6,-13.0,-4.0
782,1237,w977f12b,Blue,0.0,2831.0,1,2,5,choice,3,3,-2,-21.0,5,5,2,2,-12.0,-4,-21.0,-12.0
783,1238,w977f12b,Yellow,1.0,4117.0,0,3,5,choice,2,2,-2,0.0,5,5,2,2,0.0,5,-4.0,-4.0
784,1239,w977f12b,Animal,1.0,2503.0,1,4,5,choice,3,3,4,1.0,5,5,3,3,1.0,17,1.0,1.0
785,1240,w977f12b,Scene,0.0,4100.0,1,5,5,choice,1,2,-6,-3.0,5,5,1,1,-3.0,-12,-3.0,-3.0
786,1241,w977f12b,Green,0.0,3771.0,0,6,5,choice,1,1,5,6.0,5,5,1,1,6.0,10,6.0,6.0
787,1242,wea7f2f9,Green,,,0,1,1,choice,3,4,1,8.0,4,4,2,2,4.0,18,-4.0,-4.0
788,1243,wea7f2f9,Yellow,1.0,3755.0,1,2,1,choice,2,1,1,4.0,4,4,1,1,3.0,-4,3.0,3.0
789,1244,wea7f2f9,Animal,0.0,5087.0,1,3,1,choice,3,1,-2,-1.0,4,4,3,3,-1.0,0,2.0,2.0
790,1245,wea7f2f9,Scene,1.0,3180.0,1,4,1,choice,1,1,2,2.0,4,4,1,1,2.0,2,2.0,2.0
791,1247,wea7f2f9,Red,0.0,2234.0,1,6,1,choice,1,2,-6,-6.0,4,4,1,2,-6.0,-12,-6.0,-6.0
792,1251,wea7f2f9,Blue,1.0,3601.0,1,4,2,choice,1,1,5,3.0,4,4,1,2,3.0,5,3.0,3.0
793,1252,wea7f2f9,Scene,1.0,4070.0,0,5,2,choice,2,2,-1,-1.0,4,4,2,3,-1.0,-1,6.0,6.0
794,1253,wea7f2f9,Red,0.0,2678.0,1,6,2,choice,3,2,-1,5.0,4,4,2,2,-1.0,1,-1.0,-1.0
795,1255,wea7f2f9,Object,1.0,2151.0,1,2,3,choice,3,1,3,0.0,4,4,2,2,-3.0,4,3.0,3.0
796,1257,wea7f2f9,Animal,1.0,3656.0,1,4,3,choice,2,1,6,3.0,4,4,1,1,-4.0,4,-4.0,-4.0
797,1258,wea7f2f9,Yellow,0.0,3023.0,0,5,3,choice,2,1,4,-1.0,4,4,1,1,-4.0,-4,-4.0,-4.0
798,1260,wea7f2f9,Blue,0.0,2380.0,1,1,4,choice,1,1,-7,-5.0,5,5,1,2,-5.0,-7,-5.0,-5.0
799,1263,wea7f2f9,Green,1.0,3001.0,1,4,4,choice,3,1,2,10.0,5,5,3,3,10.0,8,7.0,7.0
800,1264,wea7f2f9,Food,0.0,2967.0,0,5,4,choice,2,1,7,9.0,5,5,2,2,9.0,7,2.0,2.0
801,1271,wea7f2f9,Animal,0.0,2218.0,0,6,5,choice,2,1,3,-2.0,2,2,2,4,-2.0,4,-6.0,-6.0
802,1272,wcbb66d9,Yellow,1.0,2365.0,1,1,1,choice,3,1,3,3.0,1,1,1,1,-4.0,-15,-4.0,-4.0
803,1273,wcbb66d9,Food,0.0,1905.0,1,2,1,choice,2,3,-2,-2.0,1,1,1,1,-4.0,-16,-4.0,-4.0
804,1278,wcbb66d9,Object,,,0,1,2,choice,3,2,-3,4.0,4,4,2,2,-5.0,-19,-5.0,-5.0
805,1279,wcbb66d9,Red,1.0,2668.0,1,2,2,choice,3,2,1,0.0,4,4,2,2,4.0,7,-2.0,2.0
806,1280,wcbb66d9,Animal,1.0,4380.0,1,3,2,choice,2,2,3,-2.0,4,4,1,1,2.0,5,-2.0,2.0
807,1281,wcbb66d9,Green,0.0,1723.0,1,4,2,choice,1,1,-7,-7.0,4,4,1,2,-7.0,-14,-7.0,-7.0
808,1282,wcbb66d9,Food,0.0,3936.0,0,5,2,choice,1,3,2,2.0,4,4,1,1,2.0,4,4.0,4.0
809,1283,wcbb66d9,Yellow,1.0,1144.0,1,6,2,choice,2,2,8,11.0,4,4,1,1,2.0,-3,2.0,2.0
810,1284,wcbb66d9,Green,1.0,2940.0,1,1,3,choice,2,2,6,3.0,6,6,2,2,3.0,12,3.0,3.0
811,1285,wcbb66d9,Object,0.0,6524.0,1,2,3,choice,1,1,-4,-2.0,6,6,1,1,-2.0,-8,-2.0,-2.0
812,1286,wcbb66d9,Animal,1.0,3356.0,1,3,3,choice,3,3,2,-1.0,6,6,3,3,-1.0,12,-1.0,-1.0
813,1287,wcbb66d9,Blue,1.0,1346.0,0,4,3,choice,3,2,-3,0.0,6,6,3,3,0.0,2,7.0,7.0
814,1288,wcbb66d9,Scene,1.0,1173.0,1,5,3,choice,2,2,8,8.0,6,6,2,2,8.0,16,8.0,8.0
815,1289,wcbb66d9,Yellow,1.0,2036.0,1,6,3,choice,1,1,3,2.0,6,6,1,1,2.0,6,2.0,2.0
816,1290,wcbb66d9,Scene,0.0,2476.0,1,1,4,choice,3,3,-2,-2.0,5,5,2,2,-6.0,-5,-6.0,-6.0
817,1291,wcbb66d9,Blue,0.0,1083.0,1,2,4,choice,3,1,-2,-2.0,5,5,3,3,-2.0,7,9.0,9.0
818,1292,wcbb66d9,Animal,0.0,3497.0,0,3,4,choice,2,2,1,0.0,5,5,2,2,0.0,1,0.0,0.0
819,1294,wcbb66d9,Green,0.0,3520.0,0,5,4,choice,2,1,2,5.0,5,5,2,2,5.0,-1,1.0,1.0
820,1295,wcbb66d9,Food,1.0,1015.0,1,6,4,choice,1,1,9,9.0,5,5,1,1,9.0,18,9.0,9.0
821,1297,wcbb66d9,Red,1.0,588.0,1,2,5,choice,3,2,5,6.0,5,5,3,3,6.0,-6,-3.0,-3.0
822,1298,wcbb66d9,Scene,0.0,3692.0,1,3,5,choice,2,1,-8,-6.0,5,5,1,1,-7.0,-18,-7.0,-7.0
823,1299,wcbb66d9,Food,0.0,2255.0,1,4,5,choice,3,2,-2,-2.0,5,5,3,3,-2.0,7,2.0,2.0
824,1308,w24cc88c,Blue,1.0,4820.0,1,1,1,choice,2,2,2,2.0,6,6,2,2,2.0,4,2.0,2.0
825,1309,w24cc88c,Food,1.0,6173.0,1,2,1,choice,3,3,5,5.0,6,6,3,3,5.0,10,5.0,5.0
826,1310,w24cc88c,Green,0.0,3007.0,1,3,1,choice,1,1,-8,-8.0,6,6,1,1,-8.0,-16,-8.0,-8.0
827,1311,w24cc88c,Yellow,1.0,2235.0,1,4,1,choice,3,2,3,3.0,6,6,3,3,3.0,10,12.0,12.0
828,1312,w24cc88c,Scene,0.0,2497.0,0,5,1,choice,2,1,1,1.0,6,6,2,2,1.0,-3,-4.0,-4.0
829,1313,w24cc88c,Object,0.0,7070.0,1,6,1,choice,1,1,-9,-9.0,6,6,1,1,-9.0,-9,-9.0,-9.0
830,1314,w24cc88c,Yellow,,,0,1,2,choice,1,1,-6,-6.0,6,6,1,1,-6.0,-12,-6.0,-6.0
831,1315,w24cc88c,Green,1.0,3661.0,1,2,2,choice,3,2,3,3.0,6,6,3,3,3.0,15,12.0,12.0
832,1316,w24cc88c,Object,1.0,3497.0,0,3,2,choice,2,1,-2,-2.0,6,6,2,2,-2.0,-9,-9.0,-9.0
833,1317,w24cc88c,Red,1.0,4835.0,1,4,2,choice,2,1,4,4.0,6,6,2,2,4.0,-6,-3.0,-3.0
834,1318,w24cc88c,Food,1.0,3701.0,1,5,2,choice,1,1,4,4.0,6,6,1,1,4.0,8,4.0,4.0
835,1319,w24cc88c,Scene,0.0,5088.0,1,6,2,choice,3,3,-1,-1.0,6,6,3,3,-1.0,-2,-1.0,-1.0
836,1320,w24cc88c,Blue,0.0,4118.0,1,1,3,choice,2,2,-1,-1.0,6,6,2,2,-1.0,1,-1.0,-1.0
837,1321,w24cc88c,Animal,0.0,4885.0,1,2,3,choice,1,1,-8,-7.0,6,6,1,1,-7.0,-16,-7.0,-7.0
838,1322,w24cc88c,Object,0.0,6231.0,0,3,3,choice,2,1,1,3.0,6,6,2,2,3.0,5,6.0,6.0
839,1323,w24cc88c,Food,1.0,1588.0,1,4,3,choice,3,3,1,-2.0,6,6,3,3,-2.0,9,-1.0,-1.0
840,1324,w24cc88c,Red,0.0,4799.0,1,5,3,choice,1,1,-7,-8.0,6,6,1,1,-8.0,-7,-8.0,-8.0
841,1325,w24cc88c,Yellow,1.0,2253.0,1,6,3,choice,3,2,2,3.0,6,6,3,3,3.0,4,10.0,10.0
842,1326,w24cc88c,Blue,,,0,1,4,choice,2,2,7,10.0,6,6,2,2,10.0,14,10.0,10.0
843,1327,w24cc88c,Yellow,,,0,2,4,choice,1,1,-7,-9.0,6,6,1,1,-9.0,-14,-9.0,-9.0
844,1328,w24cc88c,Scene,1.0,4984.0,1,3,4,choice,2,2,1,0.0,6,6,2,2,0.0,2,0.0,0.0
845,1329,w24cc88c,Food,1.0,7062.0,1,4,4,choice,1,1,4,4.0,6,6,1,1,4.0,8,4.0,4.0
846,1330,w24cc88c,Red,1.0,4203.0,1,5,4,choice,3,3,1,4.0,6,6,3,3,4.0,2,4.0,4.0
847,1331,w24cc88c,Animal,,,0,6,4,choice,3,3,-4,1.0,6,6,3,3,1.0,-8,1.0,1.0
848,1332,w24cc88c,Red,0.0,4437.0,0,1,5,choice,2,1,1,-12.0,5,5,1,1,-4.0,-8,-4.0,-4.0
849,1333,w24cc88c,Object,0.0,7137.0,1,2,5,choice,2,1,-4,-16.0,5,5,1,1,-8.0,-18,-8.0,-8.0
850,1334,w24cc88c,Scene,0.0,5890.0,0,3,5,choice,1,1,8,3.0,5,5,1,1,3.0,16,3.0,3.0
851,1335,w24cc88c,Green,0.0,6939.0,0,4,5,choice,3,3,5,-14.0,5,5,3,3,-14.0,10,-14.0,-14.0
852,1336,w24cc88c,Animal,1.0,4969.0,0,5,5,choice,3,4,-1,-7.0,5,5,3,4,-7.0,-2,-7.0,-7.0
853,1337,w24cc88c,Blue,0.0,6165.0,1,6,5,choice,1,1,-3,6.0,5,5,1,1,6.0,-6,6.0,6.0
854,1340,wed354d9,Object,0.0,1180.0,1,3,1,choice,2,2,-6,-13.0,2,2,1,1,-6.0,-6,-6.0,-6.0
855,1353,wed354d9,Blue,,,0,4,5,choice,3,3,-1,-14.0,3,3,2,2,-13.0,-3,-14.0,-13.0
856,1357,w0e7fb0a,Blue,1.0,1701.0,0,2,1,choice,3,3,-1,11.0,1,1,1,1,-1.0,-4,11.0,-1.0
857,1365,w0e7fb0a,Green,0.0,1345.0,0,4,2,choice,1,3,8,9.0,2,2,1,1,9.0,8,9.0,9.0
858,1366,w0e7fb0a,Yellow,1.0,2171.0,1,5,2,choice,2,2,1,0.0,2,2,1,1,5.0,-4,0.0,5.0
859,1367,w0e7fb0a,Food,0.0,3661.0,1,6,2,choice,3,3,-4,18.0,2,2,2,2,14.0,-9,5.0,5.0
860,1368,w0e7fb0a,Green,0.0,1751.0,1,1,3,choice,2,2,-3,-3.0,3,3,2,2,-3.0,-10,-7.0,-7.0
861,1370,w0e7fb0a,Animal,0.0,1794.0,1,3,3,choice,3,2,-4,9.0,3,3,1,2,-7.0,-20,0.0,-7.0
862,1372,w0e7fb0a,Object,1.0,2798.0,1,5,3,choice,2,1,1,7.0,3,3,2,2,7.0,4,4.0,4.0
863,1375,w0e7fb0a,Animal,1.0,3011.0,0,2,4,choice,2,2,-2,14.0,2,2,1,1,7.0,5,7.0,7.0
864,1376,w0e7fb0a,Object,1.0,1867.0,1,3,4,choice,3,2,3,14.0,2,2,1,2,4.0,4,4.0,4.0
865,1381,w0e7fb0a,Object,1.0,3424.0,0,2,5,choice,3,2,-1,8.0,3,3,2,2,2.0,-4,10.0,4.0
866,1382,w0e7fb0a,Scene,0.0,1051.0,1,3,5,choice,2,1,-4,-16.0,3,3,1,1,-8.0,-16,-8.0,-8.0
867,1383,w0e7fb0a,Green,1.0,2031.0,0,4,5,choice,2,1,-2,-2.0,3,3,1,1,-8.0,-10,-8.0,-8.0
868,1385,w0e7fb0a,Blue,0.0,915.0,0,6,5,choice,3,2,2,1.0,3,3,1,1,4.0,-7,9.0,4.0
869,1387,wa577349,Green,1.0,1021.0,1,2,1,choice,3,3,1,13.0,4,4,3,3,13.0,2,13.0,13.0
870,1388,wa577349,Yellow,0.0,4782.0,0,3,1,choice,2,2,8,-8.0,4,4,1,2,-1.0,17,-1.0,-1.0
871,1389,wa577349,Scene,1.0,2599.0,1,4,1,choice,1,3,7,9.0,4,4,1,2,9.0,14,9.0,9.0
872,1390,wa577349,Food,1.0,814.0,1,5,1,choice,2,2,1,6.0,4,4,2,2,6.0,3,0.0,7.0
873,1391,wa577349,Animal,0.0,2348.0,1,6,1,choice,3,3,-3,-13.0,4,4,1,1,-3.0,-2,-13.0,-3.0
874,1394,wa577349,Animal,0.0,4744.0,1,3,2,choice,3,3,-2,1.0,4,4,2,2,-6.0,-1,1.0,-6.0
875,1395,wa577349,Yellow,1.0,1954.0,1,4,2,choice,2,1,6,5.0,4,4,2,2,5.0,6,7.0,7.0
876,1396,wa577349,Red,0.0,3685.0,1,5,2,choice,3,2,-2,1.0,4,4,2,2,-8.0,-12,-8.0,-8.0
877,1397,wa577349,Object,1.0,4140.0,1,6,2,choice,2,1,5,3.0,4,4,2,2,3.0,1,-4.0,-4.0
878,1398,wa577349,Yellow,1.0,1787.0,0,1,3,choice,2,3,-3,4.0,5,5,2,2,4.0,-2,4.0,4.0
879,1399,wa577349,Green,1.0,1506.0,1,2,3,choice,1,1,7,7.0,5,5,1,1,7.0,14,7.0,7.0
880,1401,wa577349,Blue,0.0,1130.0,1,4,3,choice,3,2,-2,-3.0,5,5,2,2,-8.0,-22,-8.0,-8.0
881,1402,wa577349,Object,1.0,1618.0,0,5,3,choice,3,2,-2,0.0,5,5,3,3,0.0,0,3.0,3.0
882,1403,wa577349,Scene,0.0,1549.0,1,6,3,choice,2,2,-5,3.0,5,5,2,2,3.0,-10,3.0,3.0
883,1404,wa577349,Animal,0.0,6294.0,1,1,4,choice,2,2,-7,0.0,3,3,1,2,-7.0,1,-7.0,-7.0
884,1405,wa577349,Blue,0.0,1904.0,1,2,4,choice,3,2,-4,-1.0,3,3,2,2,-8.0,-1,-8.0,-8.0
885,1407,wa577349,Food,1.0,1319.0,0,4,4,choice,3,1,-2,-4.0,3,3,1,1,-5.0,-13,-5.0,-5.0
886,1410,wa577349,Blue,1.0,3659.0,1,1,5,choice,1,1,4,4.0,5,5,1,1,4.0,8,4.0,4.0
887,1411,wa577349,Scene,1.0,2050.0,1,2,5,choice,3,2,3,14.0,5,5,3,3,14.0,0,8.0,8.0
888,1413,wa577349,Yellow,0.0,2377.0,1,4,5,choice,2,1,-6,2.0,5,5,2,2,2.0,-13,4.0,4.0
889,1414,wa577349,Red,0.0,3340.0,1,5,5,choice,3,2,-2,-2.0,5,5,2,2,1.0,-4,1.0,1.0
890,1415,wa577349,Food,0.0,3428.0,1,6,5,choice,2,2,-4,-7.0,5,5,2,2,-7.0,-9,-7.0,-7.0
891,1416,w001d343,Yellow,0.0,6018.0,0,1,1,choice,2,1,2,12.0,5,5,1,1,7.0,-6,7.0,7.0
892,1417,w001d343,Animal,1.0,5596.0,1,2,1,choice,2,1,1,3.0,5,5,1,1,-2.0,-4,-2.0,-2.0
893,1418,w001d343,Food,1.0,5210.0,0,3,1,choice,3,3,-2,12.0,5,5,3,3,12.0,-4,12.0,12.0
894,1419,w001d343,Blue,1.0,5179.0,0,4,1,choice,3,2,-2,0.0,5,5,3,3,0.0,0,2.0,2.0
895,1420,w001d343,Green,1.0,3509.0,1,5,1,choice,1,1,7,8.0,5,5,1,1,8.0,14,8.0,8.0
896,1421,w001d343,Scene,1.0,3263.0,1,6,1,choice,1,1,8,5.0,5,5,1,1,5.0,16,5.0,5.0
897,1422,w001d343,Yellow,1.0,3363.0,0,1,2,choice,3,2,-2,19.0,5,5,3,3,19.0,-11,12.0,12.0
898,1423,w001d343,Scene,,,0,2,2,choice,3,3,-5,5.0,5,5,2,2,1.0,-10,5.0,1.0
899,1424,w001d343,Blue,0.0,3103.0,1,3,2,choice,2,2,-6,-12.0,5,5,2,2,-12.0,-12,-12.0,-12.0
900,1426,w001d343,Object,1.0,3067.0,1,5,2,choice,1,1,7,7.0,5,5,1,1,7.0,7,7.0,7.0
901,1427,w001d343,Animal,1.0,3502.0,0,6,2,choice,2,2,-1,-1.0,5,5,2,2,-1.0,-2,-1.0,-1.0
902,1428,w001d343,Blue,0.0,3248.0,1,1,3,choice,1,1,-8,4.0,4,4,1,1,4.0,-16,4.0,4.0
903,1429,w001d343,Green,1.0,1482.0,1,2,3,choice,3,3,1,2.0,4,4,3,3,2.0,2,2.0,2.0
904,1431,w001d343,Scene,1.0,2858.0,0,4,3,choice,1,1,-9,-9.0,4,4,1,1,-9.0,-18,-9.0,-9.0
905,1432,w001d343,Object,1.0,1790.0,1,5,3,choice,3,2,3,8.0,4,4,2,2,11.0,-2,11.0,11.0
906,1433,w001d343,Animal,0.0,3159.0,1,6,3,choice,2,2,-2,8.0,4,4,1,1,4.0,-4,8.0,4.0
907,1434,w001d343,Food,1.0,3325.0,1,1,4,choice,2,2,3,9.0,4,4,2,2,9.0,6,9.0,9.0
908,1435,w001d343,Yellow,1.0,1917.0,1,2,4,choice,3,2,2,-2.0,4,4,1,1,4.0,-2,-5.0,4.0
909,1436,w001d343,Scene,1.0,2870.0,0,3,4,choice,3,3,-4,-11.0,4,4,2,2,-2.0,-8,-11.0,-2.0
910,1438,w001d343,Green,0.0,2477.0,1,5,4,choice,1,1,-5,-9.0,4,4,1,1,-9.0,-10,-9.0,-9.0
911,1439,w001d343,Red,1.0,1216.0,1,6,4,choice,2,4,5,12.0,4,4,2,3,12.0,10,12.0,12.0
912,1440,w001d343,Object,1.0,3744.0,1,1,5,choice,3,3,3,-7.0,4,4,2,2,-4.0,6,-7.0,-4.0
913,1441,w001d343,Green,1.0,3183.0,1,2,5,choice,2,2,2,3.0,4,4,2,2,3.0,4,3.0,3.0
914,1443,w001d343,Food,1.0,2159.0,0,4,5,choice,1,2,-2,-3.0,4,4,1,1,-3.0,-4,-3.0,-3.0
915,1444,w001d343,Red,0.0,534.0,1,5,5,choice,3,2,-1,-8.0,4,4,2,2,-12.0,-20,-12.0,-12.0
916,1445,w001d343,Animal,1.0,4386.0,1,6,5,choice,2,1,6,2.0,4,4,1,1,-2.0,-6,-2.0,-2.0
917,1447,w0b2b304,Object,0.0,7037.0,1,2,1,choice,3,3,-1,5.0,3,3,1,2,-5.0,6,5.0,-5.0
918,1449,w0b2b304,Green,0.0,4398.0,1,4,1,choice,2,3,-4,-4.0,3,3,2,2,-4.0,-3,1.0,1.0
919,1450,w0b2b304,Blue,1.0,1691.0,1,5,1,choice,3,3,5,21.0,3,3,1,2,8.0,4,21.0,8.0
920,1451,w0b2b304,Food,0.0,3349.0,1,6,1,choice,2,3,-7,9.0,3,3,2,2,9.0,-14,9.0,9.0
921,1453,w0b2b304,Animal,0.0,3329.0,1,2,2,choice,1,2,-4,-4.0,5,5,1,1,-4.0,-8,-4.0,-4.0
922,1454,w0b2b304,Food,1.0,1030.0,1,3,2,choice,2,3,7,7.0,5,5,2,3,7.0,14,7.0,7.0
923,1455,w0b2b304,Object,1.0,1757.0,1,4,2,choice,3,2,4,6.0,5,5,2,2,0.0,10,1.0,-5.0
924,1456,w0b2b304,Red,1.0,3960.0,0,5,2,choice,3,3,-1,-1.0,5,5,3,3,-1.0,-7,-1.0,-1.0
925,1457,w0b2b304,Green,1.0,1698.0,1,6,2,choice,2,2,2,4.0,5,5,2,2,4.0,11,9.0,9.0
926,1458,w0b2b304,Animal,0.0,3076.0,1,1,3,choice,2,2,-8,1.0,6,6,2,2,1.0,-16,1.0,1.0
927,1459,w0b2b304,Yellow,1.0,2574.0,1,2,3,choice,3,2,5,11.0,6,6,3,3,11.0,4,8.0,8.0
928,1460,w0b2b304,Scene,1.0,1459.0,0,3,3,choice,3,2,-4,-2.0,6,6,3,3,-2.0,-1,5.0,5.0
929,1461,w0b2b304,Red,0.0,3859.0,1,4,3,choice,1,1,-5,-3.0,6,6,1,1,-3.0,-10,-3.0,-3.0
930,1462,w0b2b304,Object,1.0,2975.0,1,5,3,choice,1,1,6,3.0,6,6,1,1,3.0,6,3.0,3.0
931,1463,w0b2b304,Green,0.0,1939.0,1,6,3,choice,2,3,-6,-6.0,6,6,2,2,-6.0,-5,-6.0,-6.0
932,1464,w0b2b304,Blue,1.0,2033.0,1,1,4,choice,3,1,3,-1.0,6,6,3,3,-1.0,-18,-9.0,-9.0
933,1465,w0b2b304,Food,0.0,1496.0,0,2,4,choice,3,2,3,2.0,6,6,3,3,2.0,-2,-1.0,-1.0
934,1466,w0b2b304,Animal,1.0,3223.0,1,3,4,choice,2,2,6,3.0,6,6,2,2,3.0,-4,-2.0,-2.0
935,1467,w0b2b304,Yellow,0.0,1587.0,1,4,4,choice,1,2,-7,-7.0,6,6,1,1,-7.0,-14,-7.0,-7.0
936,1468,w0b2b304,Scene,0.0,1518.0,1,5,4,choice,1,1,-9,-9.0,6,6,1,1,-9.0,-18,-9.0,-9.0
937,1469,w0b2b304,Red,1.0,2815.0,1,6,4,choice,2,2,4,4.0,6,6,2,2,4.0,8,4.0,4.0
938,1470,w0b2b304,Food,1.0,3005.0,1,1,5,choice,1,2,2,2.0,5,5,1,2,2.0,4,2.0,2.0
939,1471,w0b2b304,Yellow,0.0,1314.0,0,2,5,choice,3,2,1,13.0,5,5,2,2,10.0,-6,10.0,10.0
940,1472,w0b2b304,Green,0.0,1812.0,1,3,5,choice,2,3,-1,0.0,5,5,2,2,0.0,-1,0.0,0.0
941,1473,w0b2b304,Blue,0.0,1531.0,1,4,5,choice,1,2,-7,-7.0,5,5,1,1,-7.0,-7,-7.0,-7.0
942,1475,w0b2b304,Scene,0.0,1982.0,1,6,5,choice,2,1,-5,13.0,5,5,2,2,13.0,-14,8.0,8.0
943,1476,w3870b92,Green,1.0,6918.0,0,1,1,choice,1,2,-8,-2.0,5,5,1,1,-2.0,-16,-2.0,-2.0
944,1477,w3870b92,Animal,0.0,2431.0,1,2,1,choice,2,3,-3,8.0,5,5,1,1,5.0,-10,5.0,5.0
945,1478,w3870b92,Red,0.0,2713.0,0,3,1,choice,2,4,4,8.0,5,5,2,2,8.0,8,3.0,3.0
946,1479,w3870b92,Scene,1.0,1911.0,0,4,1,choice,3,4,-3,6.0,5,5,3,4,6.0,-6,6.0,6.0
947,1480,w3870b92,Blue,1.0,2404.0,1,5,1,choice,3,3,1,15.0,5,5,2,2,12.0,-2,17.0,17.0
948,1481,w3870b92,Food,0.0,1709.0,0,6,1,choice,1,3,3,7.0,5,5,1,1,7.0,6,7.0,7.0
949,1482,w3870b92,Yellow,1.0,1820.0,0,1,2,choice,2,1,-7,-5.0,4,4,1,1,4.0,-5,4.0,4.0
950,1484,w3870b92,Object,0.0,2148.0,0,3,2,choice,3,3,4,-2.0,4,4,1,1,4.0,9,-2.0,4.0
951,1485,w3870b92,Food,1.0,1199.0,0,4,2,choice,2,2,-1,6.0,4,4,2,2,6.0,-2,6.0,6.0
952,1486,w3870b92,Red,1.0,1274.0,0,5,2,choice,3,3,-2,2.0,4,4,2,2,-1.0,-12,3.0,3.0
953,1487,w3870b92,Scene,0.0,2467.0,1,6,2,choice,1,3,-7,-3.0,4,4,1,2,-3.0,-14,-3.0,-3.0
954,1490,w3870b92,Object,0.0,2720.0,1,3,3,choice,3,2,-2,17.0,1,1,1,1,5.0,-4,5.0,5.0
955,1495,w3870b92,Blue,0.0,1625.0,0,2,4,choice,3,2,2,11.0,3,3,2,2,9.0,-7,7.0,5.0
956,1496,w3870b92,Scene,1.0,3337.0,1,3,4,choice,3,3,1,4.0,3,3,2,2,2.0,1,4.0,2.0
957,1506,w03114c0,Scene,0.0,3426.0,1,1,1,choice,1,2,-3,4.0,4,4,1,1,4.0,-6,4.0,4.0
958,1507,w03114c0,Animal,1.0,1477.0,1,2,1,choice,3,2,1,1.0,4,4,2,2,-4.0,-2,-3.0,-8.0
959,1508,w03114c0,Blue,1.0,2001.0,1,3,1,choice,1,1,4,4.0,4,4,1,2,4.0,4,4.0,4.0
960,1510,w03114c0,Yellow,0.0,1138.0,1,5,1,choice,3,3,-2,-1.0,4,4,3,3,-1.0,-4,-1.0,-1.0
961,1511,w03114c0,Object,1.0,645.0,1,6,1,choice,2,2,7,1.0,4,4,1,2,3.0,18,3.0,3.0
962,1513,w03114c0,Animal,0.0,2279.0,0,2,2,choice,2,1,6,-6.0,6,6,2,2,-6.0,-4,-2.0,-2.0
963,1514,w03114c0,Red,1.0,1381.0,1,3,2,choice,3,2,3,-11.0,6,6,3,3,-11.0,-10,-7.0,-7.0
964,1515,w03114c0,Food,0.0,2436.0,0,4,2,choice,3,2,3,-4.0,6,6,3,3,-4.0,14,4.0,4.0
965,1516,w03114c0,Green,1.0,1582.0,1,5,2,choice,2,1,4,0.0,6,6,2,2,0.0,2,-2.0,-2.0
966,1517,w03114c0,Scene,0.0,637.0,1,6,2,choice,1,1,-9,-9.0,6,6,1,1,-9.0,-18,-9.0,-9.0
967,1518,w03114c0,Food,1.0,1568.0,0,1,3,choice,2,2,-3,-2.0,3,3,1,2,-4.0,-1,-2.0,-4.0
968,1519,w03114c0,Object,0.0,2078.0,1,2,3,choice,1,1,-4,-4.0,3,3,1,1,-4.0,-4,-4.0,-4.0
969,1520,w03114c0,Red,1.0,668.0,1,3,3,choice,3,2,1,2.0,3,3,2,2,0.0,6,6.0,4.0
970,1523,w03114c0,Animal,0.0,1357.0,0,6,3,choice,3,1,2,10.0,3,3,1,1,4.0,6,4.0,4.0
971,1524,w03114c0,Object,0.0,3761.0,1,1,4,choice,2,1,-5,7.0,4,4,1,1,5.0,-14,5.0,5.0
972,1526,w03114c0,Blue,1.0,521.0,0,3,4,choice,3,2,-2,9.0,4,4,2,2,13.0,-22,13.0,13.0
973,1528,w03114c0,Green,1.0,2739.0,0,5,4,choice,2,1,-3,6.0,4,4,1,1,4.0,-10,4.0,4.0
974,1529,w03114c0,Scene,1.0,578.0,0,6,4,choice,3,3,-1,21.0,4,4,3,3,21.0,-10,21.0,21.0
975,1530,w03114c0,Scene,1.0,2327.0,0,1,5,choice,2,1,-2,5.0,4,4,1,1,5.0,12,5.0,5.0
976,1531,w03114c0,Object,0.0,3280.0,1,2,5,choice,3,1,-3,2.0,4,4,2,2,2.0,-5,-7.0,-7.0
977,1533,w03114c0,Yellow,1.0,1545.0,1,4,5,choice,3,3,3,2.0,4,4,3,3,2.0,6,2.0,2.0
978,1534,w03114c0,Blue,1.0,1360.0,1,5,5,choice,2,1,1,9.0,4,4,1,1,9.0,9,9.0,9.0
979,1535,w03114c0,Food,1.0,1990.0,1,6,5,choice,1,1,4,4.0,4,4,1,1,4.0,8,4.0,4.0
980,1537,w0fc6501,Food,1.0,2423.0,0,2,1,choice,2,4,-7,7.0,2,2,1,1,2.0,-16,7.0,2.0
981,1538,w0fc6501,Yellow,1.0,1466.0,1,3,1,choice,3,4,1,-2.0,2,2,2,2,-2.0,0,-4.0,-4.0
982,1540,w0fc6501,Scene,1.0,2018.0,0,5,1,choice,1,4,-7,-4.0,2,2,1,3,-4.0,-14,-4.0,-4.0
983,1542,w0fc6501,Red,0.0,4672.0,1,1,2,choice,3,1,-1,-8.0,3,3,1,1,2.0,1,2.0,2.0
984,1544,w0fc6501,Food,1.0,4003.0,0,3,2,choice,1,1,-2,2.0,3,3,1,2,2.0,-4,2.0,2.0
985,1546,w0fc6501,Blue,1.0,1874.0,1,5,2,choice,2,2,1,9.0,3,3,1,2,4.0,-6,4.0,4.0
986,1547,w0fc6501,Object,0.0,1992.0,0,6,2,choice,3,3,1,0.0,3,3,2,2,2.0,-6,0.0,2.0
987,1548,w0fc6501,Green,1.0,7266.0,1,1,3,choice,2,1,3,11.0,2,2,1,1,3.0,8,3.0,3.0
988,1551,w0fc6501,Scene,1.0,1655.0,1,4,3,choice,3,2,1,2.0,2,2,2,2,2.0,5,2.0,2.0
989,1558,w0fc6501,Blue,1.0,5951.0,1,5,4,choice,1,1,6,0.0,2,2,1,1,0.0,12,0.0,0.0
990,1559,w0fc6501,Scene,0.0,1422.0,1,6,4,choice,3,2,-2,0.0,2,2,2,2,0.0,6,0.0,0.0
991,1590,wb0ecf0b,Scene,0.0,2228.0,0,1,1,choice,3,2,4,20.0,6,6,3,3,20.0,15,15.0,15.0
992,1591,wb0ecf0b,Yellow,1.0,3627.0,1,2,1,choice,3,3,3,5.0,6,6,3,3,5.0,3,5.0,5.0
993,1592,wb0ecf0b,Red,1.0,4378.0,0,3,1,choice,1,7,-9,9.0,6,6,1,1,9.0,-18,23.0,23.0
994,1593,wb0ecf0b,Object,0.0,4560.0,1,4,1,choice,1,2,-8,5.0,6,6,1,1,5.0,-24,5.0,5.0
995,1594,wb0ecf0b,Animal,0.0,4132.0,0,5,1,choice,2,2,2,-2.0,6,6,2,2,-2.0,6,-2.0,-2.0
996,1595,wb0ecf0b,Blue,0.0,2364.0,0,6,1,choice,2,2,4,9.0,6,6,2,2,9.0,12,9.0,9.0
997,1596,wb0ecf0b,Blue,1.0,4628.0,0,1,2,choice,3,3,-1,3.0,6,6,3,3,3.0,-2,3.0,3.0
998,1597,wb0ecf0b,Yellow,0.0,6698.0,0,2,2,choice,1,1,7,7.0,6,6,1,1,7.0,14,7.0,7.0
999,1598,wb0ecf0b,Green,1.0,4440.0,0,3,2,choice,2,2,-8,0.0,6,6,2,2,0.0,-16,0.0,0.0
1000,1599,wb0ecf0b,Scene,,,0,4,2,choice,2,2,-1,3.0,6,6,2,2,3.0,-2,3.0,3.0
1001,1600,wb0ecf0b,Food,1.0,10.0,1,5,2,choice,3,2,2,10.0,6,6,3,3,10.0,4,6.0,6.0
1002,1601,wb0ecf0b,Object,0.0,1716.0,1,6,2,choice,1,2,-3,-3.0,6,6,1,1,-3.0,-6,1.0,1.0
1003,1603,wb0ecf0b,Yellow,1.0,2425.0,0,2,3,choice,2,2,-1,12.0,2,2,1,1,5.0,1,12.0,5.0
1004,1605,wb0ecf0b,Object,0.0,800.0,1,4,3,choice,2,2,-4,-1.0,2,2,1,1,5.0,4,5.0,5.0
1005,1609,wb0ecf0b,Animal,0.0,2974.0,0,2,4,choice,2,2,6,3.0,4,4,2,2,3.0,12,3.0,3.0
1006,1610,wb0ecf0b,Green,1.0,995.0,0,3,4,choice,1,2,-7,-4.0,4,4,1,1,-4.0,-7,-4.0,-4.0
1007,1612,wb0ecf0b,Blue,1.0,844.0,1,5,4,choice,2,2,3,0.0,4,4,2,2,0.0,1,0.0,0.0
1008,1613,wb0ecf0b,Red,1.0,1359.0,1,6,4,choice,3,1,2,13.0,4,4,1,1,8.0,19,8.0,8.0
1009,1615,wb0ecf0b,Animal,,,0,2,5,choice,3,1,6,9.0,4,4,2,2,4.0,-2,-5.0,-5.0
1010,1616,wb0ecf0b,Scene,0.0,120.0,1,3,5,choice,2,1,-1,13.0,4,4,1,1,9.0,-12,9.0,9.0
1011,1617,wb0ecf0b,Red,0.0,1019.0,1,4,5,choice,3,3,-3,12.0,4,4,3,3,12.0,-13,12.0,12.0
1012,1618,wb0ecf0b,Food,0.0,2370.0,1,5,5,choice,1,2,-4,-6.0,4,4,1,1,-6.0,-8,-6.0,-6.0
1013,1620,w8937d22,Animal,1.0,6028.0,1,1,1,choice,3,3,1,12.0,6,6,3,3,12.0,2,12.0,12.0
1014,1621,w8937d22,Scene,0.0,2408.0,1,2,1,choice,2,2,-3,-15.0,6,6,2,2,-15.0,-6,-15.0,-15.0
1015,1622,w8937d22,Red,1.0,3548.0,0,3,1,choice,2,2,-7,-7.0,6,6,2,2,-7.0,-14,-7.0,-7.0
1016,1623,w8937d22,Yellow,1.0,1622.0,0,4,1,choice,3,2,-2,4.0,6,6,3,3,4.0,-1,0.0,0.0
1017,1624,w8937d22,Green,1.0,4166.0,1,5,1,choice,1,1,4,4.0,6,6,1,1,4.0,8,4.0,4.0
1018,1625,w8937d22,Food,0.0,2906.0,1,6,1,choice,1,1,-3,4.0,6,6,1,1,4.0,-3,4.0,4.0
1019,1626,w8937d22,Red,1.0,3283.0,1,1,2,choice,2,1,1,0.0,5,5,1,1,9.0,18,9.0,9.0
1020,1627,w8937d22,Animal,0.0,2809.0,1,2,2,choice,1,1,-3,-2.0,5,5,1,1,-4.0,-6,-2.0,-2.0
1021,1628,w8937d22,Yellow,0.0,2820.0,1,3,2,choice,3,3,-1,5.0,5,5,3,3,3.0,-2,5.0,5.0
1022,1629,w8937d22,Object,0.0,2731.0,0,4,2,choice,3,1,1,6.0,5,5,1,1,9.0,16,9.0,9.0
1023,1631,w8937d22,Food,1.0,1779.0,1,6,2,choice,2,2,4,7.0,5,5,2,2,7.0,8,7.0,7.0
1024,1632,w8937d22,Object,0.0,3058.0,1,1,3,choice,1,2,-3,4.0,4,4,1,2,4.0,-3,4.0,4.0
1025,1633,w8937d22,Food,1.0,996.0,1,2,3,choice,3,1,3,1.0,4,4,2,2,10.0,3,6.0,6.0
1026,1634,w8937d22,Scene,0.0,2110.0,0,3,3,choice,2,1,1,11.0,4,4,1,1,4.0,-8,4.0,4.0
1027,1635,w8937d22,Green,0.0,3399.0,1,4,3,choice,3,1,-1,15.0,4,4,2,3,8.0,-10,4.0,4.0
1028,1638,w8937d22,Blue,1.0,1823.0,0,1,4,choice,3,3,-2,13.0,6,6,3,3,13.0,-4,13.0,13.0
1029,1639,w8937d22,Green,0.0,1932.0,1,2,4,choice,2,2,-2,-8.0,6,6,2,2,-8.0,1,-8.0,-8.0
1030,1640,w8937d22,Scene,0.0,1993.0,1,3,4,choice,3,2,-4,9.0,6,6,3,3,9.0,-3,13.0,13.0
1031,1641,w8937d22,Yellow,1.0,1572.0,1,4,4,choice,1,1,7,7.0,6,6,1,1,7.0,14,7.0,7.0
1032,1642,w8937d22,Animal,0.0,3261.0,0,5,4,choice,1,1,8,3.0,6,6,1,1,3.0,16,3.0,3.0
1033,1643,w8937d22,Food,0.0,2755.0,1,6,4,choice,2,2,-1,0.0,6,6,2,2,0.0,-2,0.0,0.0
1034,1646,w8937d22,Animal,0.0,4480.0,1,3,5,choice,2,1,-3,-18.0,2,2,1,1,-9.0,12,-9.0,-9.0
1035,1647,w8937d22,Object,1.0,1698.0,0,4,5,choice,3,1,-2,14.0,2,2,1,2,4.0,-7,4.0,4.0
1036,1648,w8937d22,Blue,0.0,3096.0,0,5,5,choice,2,1,3,-7.0,2,2,1,1,-9.0,12,-9.0,-9.0
1037,1650,w0bdd7c4,Object,0.0,4755.0,0,1,1,choice,1,4,2,3.0,3,3,1,1,3.0,4,3.0,3.0
1038,1651,w0bdd7c4,Blue,0.0,5381.0,1,2,1,choice,2,4,-1,8.0,3,3,1,1,2.0,-2,8.0,2.0
1039,1653,w0bdd7c4,Food,0.0,1680.0,1,4,1,choice,3,3,-3,-12.0,3,3,1,2,2.0,0,-6.0,2.0
1040,1654,w0bdd7c4,Animal,1.0,3514.0,0,5,1,choice,2,4,-5,9.0,3,3,1,2,3.0,-10,9.0,3.0
1041,1655,w0bdd7c4,Green,1.0,2716.0,1,6,1,choice,3,4,1,-2.0,3,3,2,2,6.0,2,-2.0,6.0
1042,1656,w0bdd7c4,Blue,0.0,3250.0,1,1,2,choice,3,4,-2,6.0,3,3,2,2,11.0,-4,6.0,11.0
1043,1657,w0bdd7c4,Object,1.0,2155.0,1,2,2,choice,3,4,4,3.0,3,3,1,1,6.0,8,3.0,6.0
1044,1659,w0bdd7c4,Yellow,0.0,5694.0,1,4,2,choice,2,4,-1,-13.0,3,3,1,1,-4.0,-2,-13.0,-4.0
1045,1661,w0bdd7c4,Food,1.0,1114.0,1,6,2,choice,2,4,3,1.0,3,3,2,3,1.0,6,1.0,1.0
1046,1662,w0bdd7c4,Animal,0.0,3993.0,0,1,3,choice,1,4,8,5.0,4,4,1,1,5.0,16,5.0,5.0
1047,1663,w0bdd7c4,Object,0.0,1835.0,1,2,3,choice,2,4,-3,-13.0,4,4,1,2,-9.0,-6,-13.0,-9.0
1048,1664,w0bdd7c4,Scene,1.0,1979.0,0,3,3,choice,3,4,-1,-2.0,4,4,2,2,3.0,-2,-2.0,3.0
1049,1665,w0bdd7c4,Green,0.0,3462.0,1,4,3,choice,1,4,-2,-3.0,4,4,1,1,-3.0,-4,-3.0,-3.0
1050,1667,w0bdd7c4,Yellow,1.0,572.0,1,6,3,choice,3,4,4,2.0,4,4,3,3,2.0,8,2.0,2.0
1051,1668,w0bdd7c4,Red,0.0,5565.0,0,1,4,choice,2,4,8,-8.0,5,5,2,2,-8.0,16,-8.0,-8.0
1052,1669,w0bdd7c4,Scene,1.0,3103.0,1,2,4,choice,1,4,4,3.0,5,5,1,1,3.0,8,3.0,3.0
1053,1670,w0bdd7c4,Animal,0.0,3567.0,1,3,4,choice,3,4,-4,4.0,5,5,2,3,-2.0,-8,4.0,-2.0
1054,1671,w0bdd7c4,Yellow,0.0,4707.0,1,4,4,choice,1,4,-6,3.0,5,5,1,1,3.0,-12,3.0,3.0
1055,1672,w0bdd7c4,Object,1.0,793.0,1,5,4,choice,2,4,4,-9.0,5,5,2,2,-9.0,8,-9.0,-9.0
1056,1673,w0bdd7c4,Blue,1.0,624.0,1,6,4,choice,3,4,2,3.0,5,5,2,2,-3.0,4,3.0,-3.0
1057,1674,w0bdd7c4,Red,0.0,4279.0,1,1,5,choice,1,4,-7,-6.0,5,5,1,2,-6.0,-14,-6.0,-6.0
1058,1675,w0bdd7c4,Scene,0.0,1081.0,0,2,5,choice,3,4,3,-4.0,5,5,3,3,-4.0,6,-4.0,-4.0
1059,1676,w0bdd7c4,Green,1.0,1152.0,1,3,5,choice,3,4,3,13.0,5,5,2,2,10.0,6,13.0,10.0
1060,1677,w0bdd7c4,Yellow,0.0,4376.0,0,4,5,choice,2,4,3,-10.0,5,5,2,2,-10.0,6,-10.0,-10.0
1061,1678,w0bdd7c4,Animal,1.0,1112.0,0,5,5,choice,1,4,-9,3.0,5,5,1,2,3.0,-18,3.0,3.0
1062,1679,w0bdd7c4,Food,1.0,2132.0,1,6,5,choice,2,4,5,-2.0,5,5,1,1,-5.0,10,-2.0,-5.0
1063,1682,w5bee286,Blue,1.0,581.0,0,3,1,choice,1,1,-7,-7.0,3,3,1,3,-7.0,-14,-7.0,-7.0
1064,1683,w5bee286,Red,1.0,942.0,1,4,1,choice,2,1,2,-5.0,3,3,2,2,-5.0,3,-3.0,-3.0
1065,1684,w5bee286,Animal,0.0,1991.0,0,5,1,choice,3,1,2,-9.0,3,3,2,3,-10.0,-11,-7.0,-7.0
1066,1686,w5bee286,Scene,,,0,1,2,choice,3,3,-3,3.0,6,6,3,3,3.0,-6,3.0,3.0
1067,1687,w5bee286,Red,1.0,2920.0,0,2,2,choice,2,2,-2,6.0,6,6,2,2,6.0,-7,6.0,6.0
1068,1688,w5bee286,Food,0.0,2232.0,1,3,2,choice,2,1,-6,-7.0,6,6,2,2,-7.0,-15,-9.0,-9.0
1069,1689,w5bee286,Object,1.0,1128.0,1,4,2,choice,1,2,8,3.0,6,6,1,1,3.0,16,3.0,3.0
1070,1690,w5bee286,Green,0.0,1643.0,0,5,2,choice,3,3,5,-10.0,6,6,3,3,-10.0,10,-10.0,-10.0
1071,1691,w5bee286,Yellow,1.0,2137.0,0,6,2,choice,1,1,-4,3.0,6,6,1,1,3.0,-8,3.0,3.0
1072,1693,w5bee286,Food,1.0,2659.0,1,2,3,choice,2,2,2,-16.0,4,4,2,3,-16.0,-4,-7.0,-7.0
1073,1694,w5bee286,Animal,0.0,2022.0,0,3,3,choice,1,1,9,8.0,4,4,1,1,8.0,18,8.0,8.0
1074,1695,w5bee286,Yellow,0.0,976.0,1,4,3,choice,3,3,-1,-3.0,4,4,3,3,-3.0,2,-3.0,-3.0
1075,1696,w5bee286,Blue,1.0,545.0,1,5,3,choice,2,1,5,-6.0,4,4,1,1,-9.0,8,-9.0,-9.0
1076,1699,w5bee286,Blue,1.0,480.0,1,2,4,choice,2,2,1,3.0,5,5,2,3,3.0,14,7.0,7.0
1077,1700,w5bee286,Scene,1.0,1386.0,1,3,4,choice,3,2,2,9.0,5,5,2,2,11.0,-2,11.0,11.0
1078,1701,w5bee286,Animal,1.0,2618.0,0,4,4,choice,1,1,-4,7.0,5,5,1,1,7.0,-4,7.0,7.0
1079,1702,w5bee286,Object,0.0,1262.0,0,5,4,choice,2,1,3,0.0,5,5,2,2,0.0,18,4.0,4.0
1080,1703,w5bee286,Green,1.0,2660.0,0,6,4,choice,3,2,-3,15.0,5,5,3,3,15.0,-2,8.0,8.0
1081,1704,w5bee286,Red,0.0,1848.0,1,1,5,choice,2,1,-2,-13.0,6,6,1,1,-9.0,-18,-9.0,-9.0
1082,1705,w5bee286,Blue,1.0,1332.0,0,2,5,choice,3,3,-1,14.0,6,6,3,3,14.0,-3,14.0,14.0
1083,1706,w5bee286,Green,1.0,622.0,1,3,5,choice,1,1,8,8.0,6,6,1,1,16.0,8,8.0,8.0
1084,1707,w5bee286,Animal,1.0,968.0,1,4,5,choice,3,1,4,3.0,6,6,3,3,11.0,-5,-9.0,-9.0
1085,1708,w5bee286,Food,1.0,2491.0,0,5,5,choice,1,1,-2,6.0,6,6,1,1,6.0,-4,6.0,6.0
1086,1710,w30bb20e,Green,1.0,3146.0,0,1,1,choice,3,4,-1,-8.0,4,4,2,2,-8.0,10,-5.0,-5.0
1087,1712,w30bb20e,Scene,1.0,3037.0,1,3,1,choice,3,2,4,-6.0,4,4,3,3,-6.0,28,2.0,2.0
1088,1713,w30bb20e,Blue,1.0,3059.0,1,4,1,choice,2,1,6,9.0,4,4,1,1,9.0,21,9.0,9.0
1089,1714,w30bb20e,Animal,0.0,6626.0,0,5,1,choice,2,1,8,0.0,4,4,1,1,0.0,18,1.0,1.0
1090,1715,w30bb20e,Red,0.0,7441.0,0,6,1,choice,1,1,5,-7.0,4,4,1,1,-7.0,15,-7.0,-7.0
1091,1716,w30bb20e,Object,1.0,4596.0,1,1,2,choice,2,2,1,-4.0,5,5,2,2,-4.0,2,1.0,1.0
1092,1717,w30bb20e,Scene,1.0,1830.0,0,2,2,choice,3,2,-1,-9.0,5,5,2,2,-5.0,1,4.0,4.0
1093,1719,w30bb20e,Yellow,1.0,2402.0,1,4,2,choice,2,2,5,-4.0,5,5,2,2,-4.0,10,5.0,5.0
1094,1720,w30bb20e,Animal,0.0,2028.0,0,5,2,choice,1,1,6,0.0,5,5,1,1,0.0,12,1.0,1.0
1095,1721,w30bb20e,Green,0.0,3274.0,0,6,2,choice,3,3,4,-5.0,5,5,3,3,-5.0,8,1.0,1.0
1096,1723,w30bb20e,Food,1.0,5368.0,0,2,3,choice,3,2,-2,-6.0,4,4,2,2,0.0,-1,-1.0,5.0
1097,1724,w30bb20e,Scene,1.0,5655.0,1,3,3,choice,1,1,2,0.0,4,4,1,1,0.0,2,2.0,2.0
1098,1725,w30bb20e,Green,1.0,5905.0,1,4,3,choice,2,1,3,0.0,4,4,2,2,0.0,-2,5.0,5.0
1099,1726,w30bb20e,Object,1.0,2107.0,1,5,3,choice,2,2,1,-8.0,4,4,1,1,0.0,1,-1.0,7.0
1100,1727,w30bb20e,Yellow,0.0,5846.0,1,6,3,choice,1,1,-3,0.0,4,4,1,1,0.0,-3,2.0,2.0
1101,1729,w30bb20e,Animal,0.0,3122.0,0,2,4,choice,2,1,2,-3.0,3,3,1,1,0.0,12,6.0,6.0
1102,1730,w30bb20e,Red,0.0,1371.0,1,3,4,choice,2,2,-3,-9.0,3,3,2,2,-9.0,3,-3.0,-3.0
1103,1732,w30bb20e,Food,0.0,2962.0,0,5,4,choice,3,2,1,-9.0,3,3,2,2,-9.0,11,10.0,5.0
1104,1733,w30bb20e,Blue,1.0,4829.0,1,6,4,choice,1,1,3,0.0,3,3,1,1,0.0,6,5.0,5.0
1105,1734,w30bb20e,Red,1.0,1491.0,1,1,5,choice,3,3,6,-9.0,5,5,3,3,-9.0,12,5.0,5.0
1106,1735,w30bb20e,Animal,1.0,3316.0,0,2,5,choice,3,2,-1,-8.0,5,5,2,2,-5.0,8,2.0,2.0
1107,1736,w30bb20e,Blue,0.0,2579.0,1,3,5,choice,1,1,-3,-5.0,5,5,1,1,-5.0,-6,-5.0,-5.0
1108,1737,w30bb20e,Food,1.0,3906.0,1,4,5,choice,1,1,8,0.0,5,5,1,1,0.0,16,7.0,7.0
1109,1738,w30bb20e,Object,0.0,1082.0,1,5,5,choice,2,2,-7,-9.0,5,5,2,2,-9.0,-14,-5.0,-5.0
1110,1739,w30bb20e,Yellow,1.0,5541.0,0,6,5,choice,2,1,-3,-3.0,5,5,1,1,0.0,4,4.0,4.0
1111,1752,wb90ffa2,Blue,1.0,2765.0,1,1,1,choice,1,3,3,0.0,4,4,1,1,0.0,9,2.0,2.0
1112,1753,wb90ffa2,Food,1.0,1296.0,1,2,1,choice,2,2,8,-5.0,4,4,1,1,0.0,25,1.0,6.0
1113,1754,wb90ffa2,Scene,0.0,4368.0,0,3,1,choice,3,3,1,-7.0,4,4,2,2,-5.0,13,-3.0,-3.0
1114,1756,wb90ffa2,Red,1.0,2211.0,0,5,1,choice,3,1,-1,-4.0,4,4,2,2,-2.0,27,6.0,6.0
1115,1764,wb90ffa2,Animal,0.0,5673.0,0,1,3,choice,3,2,1,5.0,4,4,2,2,1.0,-2,-5.0,-5.0
1116,1765,wb90ffa2,Green,1.0,1877.0,1,2,3,choice,3,1,1,12.0,4,4,1,1,6.0,-18,6.0,6.0
1117,1767,wb90ffa2,Red,0.0,2144.0,1,4,3,choice,1,1,-6,-5.0,4,4,1,1,-5.0,-6,4.0,4.0
1118,1768,wb90ffa2,Blue,1.0,1379.0,0,5,3,choice,2,2,-4,10.0,4,4,2,3,10.0,-4,6.0,6.0
1119,1769,wb90ffa2,Scene,1.0,939.0,0,6,3,choice,1,2,-9,6.0,4,4,1,2,6.0,-18,6.0,6.0
1120,1772,wb90ffa2,Food,1.0,1890.0,1,3,4,choice,3,1,1,3.0,3,3,1,1,6.0,8,6.0,6.0
1121,1776,wb90ffa2,Blue,0.0,1408.0,1,1,5,choice,3,1,-3,0.0,4,4,2,2,0.0,-8,5.0,5.0
1122,1778,wb90ffa2,Food,1.0,1416.0,0,3,5,choice,3,1,-3,-9.0,4,4,2,2,0.0,-8,5.0,5.0
1123,1779,wb90ffa2,Animal,1.0,2468.0,0,4,5,choice,2,1,-2,-5.0,4,4,2,2,-5.0,3,-5.0,-5.0
1124,1782,wc6ebbf2,Food,,,0,1,1,choice,2,4,1,0.0,5,5,2,2,0.0,2,3.0,3.0
1125,1783,wc6ebbf2,Animal,0.0,4539.0,1,2,1,choice,3,4,-3,-13.0,5,5,2,2,-4.0,-6,-6.0,3.0
1126,1784,wc6ebbf2,Blue,1.0,6584.0,0,3,1,choice,1,4,-4,-4.0,5,5,1,1,-4.0,-8,-4.0,-4.0
1127,1785,wc6ebbf2,Green,,,0,4,1,choice,2,4,8,0.0,5,5,2,2,0.0,16,8.0,8.0
1128,1786,wc6ebbf2,Yellow,1.0,2995.0,1,5,1,choice,3,4,1,-17.0,5,5,2,2,-8.0,-5,-7.0,2.0
1129,1787,wc6ebbf2,Scene,0.0,3199.0,0,6,1,choice,1,4,7,-8.0,5,5,1,1,-8.0,7,-8.0,-8.0
1130,1788,wc6ebbf2,Red,1.0,6434.0,1,1,2,choice,1,4,5,-4.0,3,3,1,1,-4.0,10,-4.0,-4.0
1131,1790,wc6ebbf2,Blue,0.0,2275.0,1,3,2,choice,2,4,-7,-9.0,3,3,1,1,0.0,-14,-5.0,4.0
1132,1791,wc6ebbf2,Yellow,0.0,1878.0,1,4,2,choice,3,4,-2,-9.0,3,3,1,1,-9.0,-4,1.0,-9.0
1133,1793,wc6ebbf2,Food,1.0,2438.0,1,6,2,choice,3,4,1,-13.0,3,3,3,3,-13.0,2,-9.0,-9.0
1134,1794,wc6ebbf2,Animal,0.0,5082.0,1,1,3,choice,2,4,-6,-9.0,3,3,1,1,0.0,-12,-5.0,4.0
1135,1795,wc6ebbf2,Yellow,1.0,2192.0,0,2,3,choice,1,4,-2,-2.0,3,3,1,1,-2.0,-4,-2.0,-2.0
1136,1796,wc6ebbf2,Object,,,0,3,3,choice,3,4,-1,-11.0,3,3,2,2,-9.0,-2,-11.0,-9.0
1137,1799,wc6ebbf2,Green,1.0,2632.0,0,6,3,choice,2,4,-4,-7.0,3,3,2,2,-7.0,-8,-3.0,-3.0
1138,1801,wc6ebbf2,Red,1.0,2144.0,1,2,4,choice,3,4,3,-8.0,3,3,3,3,-8.0,6,1.0,1.0
1139,1802,wc6ebbf2,Food,1.0,4449.0,0,3,4,choice,1,4,-7,0.0,3,3,1,1,0.0,-14,6.0,6.0
1140,1803,wc6ebbf2,Object,0.0,4786.0,0,4,4,choice,3,4,1,-8.0,3,3,1,1,-8.0,2,-2.0,-8.0
1141,1805,wc6ebbf2,Scene,0.0,4818.0,0,6,4,choice,2,4,5,-5.0,3,3,1,1,0.0,10,-2.0,3.0
1142,1806,wc6ebbf2,Blue,0.0,6088.0,0,1,5,choice,3,4,6,-9.0,5,5,2,2,-9.0,12,6.0,-1.0
1143,1807,wc6ebbf2,Green,0.0,5668.0,1,2,5,choice,2,4,-2,0.0,5,5,2,2,0.0,-4,6.0,6.0
1144,1808,wc6ebbf2,Animal,1.0,5479.0,1,3,5,choice,1,4,8,0.0,5,5,1,1,0.0,16,8.0,8.0
1145,1809,wc6ebbf2,Food,0.0,6094.0,1,4,5,choice,2,4,-8,-9.0,5,5,2,2,-9.0,-16,-6.0,-6.0
1146,1810,wc6ebbf2,Yellow,1.0,5685.0,0,5,5,choice,1,4,-5,-5.0,5,5,1,1,-5.0,-10,-5.0,-5.0
1147,1811,wc6ebbf2,Scene,1.0,5552.0,0,6,5,choice,3,4,-1,-5.0,5,5,2,2,-5.0,-2,5.0,-2.0
1148,1842,wea96b0b,Blue,0.0,3739.0,0,1,1,choice,3,2,2,-3.0,5,5,2,2,-5.0,-14,-8.0,-8.0
1149,1843,wea96b0b,Green,1.0,4011.0,0,2,1,choice,2,2,-1,9.0,5,5,2,2,9.0,-5,9.0,9.0
1150,1844,wea96b0b,Object,1.0,5454.0,0,3,1,choice,3,2,-1,-5.0,5,5,2,2,-7.0,-24,-7.0,-7.0
1151,1845,wea96b0b,Red,0.0,4605.0,1,4,1,choice,1,1,-5,-9.0,5,5,1,2,-9.0,-15,-9.0,-9.0
1152,1846,wea96b0b,Scene,1.0,2755.0,1,5,1,choice,1,1,4,3.0,5,5,1,1,3.0,4,3.0,3.0
1153,1847,wea96b0b,Food,0.0,2378.0,1,6,1,choice,2,5,-7,-1.0,5,5,2,2,-1.0,-14,-8.0,-8.0
1154,1848,wea96b0b,Food,0.0,3146.0,0,1,2,choice,2,1,1,0.0,4,4,1,1,3.0,-4,3.0,3.0
1155,1849,wea96b0b,Yellow,1.0,1299.0,1,2,2,choice,2,1,6,11.0,4,4,2,2,11.0,-4,3.0,3.0
1156,1850,wea96b0b,Animal,0.0,3221.0,1,3,2,choice,1,1,-5,2.0,4,4,1,1,2.0,-5,2.0,2.0
1157,1851,wea96b0b,Scene,1.0,3405.0,1,4,2,choice,3,1,3,14.0,4,4,2,2,12.0,8,4.0,4.0
1158,1853,wea96b0b,Red,1.0,3913.0,1,6,2,choice,3,1,2,3.0,4,4,2,2,6.0,3,4.0,4.0
1159,1858,wea96b0b,Green,0.0,5154.0,1,5,3,choice,2,1,-1,0.0,2,2,1,2,2.0,-9,2.0,2.0
1160,1859,wea96b0b,Blue,1.0,2001.0,0,6,3,choice,1,1,-4,-2.0,2,2,1,1,-2.0,-4,-2.0,-2.0
1161,1860,wea96b0b,Red,1.0,2276.0,1,1,4,choice,2,1,5,-5.0,4,4,1,1,-7.0,16,-7.0,-7.0
1162,1861,wea96b0b,Animal,1.0,4114.0,1,2,4,choice,2,1,2,-1.0,4,4,1,1,-3.0,5,-3.0,-3.0
1163,1862,wea96b0b,Green,0.0,1736.0,0,3,4,choice,3,2,1,-4.0,4,4,3,3,-4.0,-3,-1.0,-1.0
1164,1864,wea96b0b,Scene,0.0,2463.0,0,5,4,choice,3,2,1,2.0,4,4,2,2,0.0,20,0.0,0.0
1165,1865,wea96b0b,Food,1.0,3888.0,0,6,4,choice,1,1,-6,-8.0,4,4,1,1,-8.0,-12,-8.0,-8.0
1166,1866,wea96b0b,Yellow,0.0,4463.0,0,1,5,choice,3,1,1,7.0,2,2,2,2,10.0,-4,4.0,4.0
1167,1869,wea96b0b,Object,1.0,2744.0,0,4,5,choice,3,1,-3,13.0,2,2,1,1,6.0,-8,6.0,6.0
1168,1871,wea96b0b,Scene,1.0,2044.0,1,6,5,choice,1,2,2,4.0,2,2,1,2,4.0,4,4.0,4.0
1169,1878,wbd60b70,Blue,1.0,2887.0,1,1,1,choice,3,4,3,-5.0,5,5,3,3,-5.0,6,-5.0,-5.0
1170,1879,wbd60b70,Animal,1.0,5088.0,0,2,1,choice,2,4,-2,-2.0,5,5,1,1,7.0,-4,-2.0,7.0
1171,1880,wbd60b70,Food,1.0,4857.0,1,3,1,choice,3,3,3,-6.0,5,5,3,3,-6.0,5,-6.0,-6.0
1172,1881,wbd60b70,Object,0.0,5984.0,1,4,1,choice,1,5,-8,-8.0,5,5,1,1,-8.0,-16,-10.0,-10.0
1173,1882,wbd60b70,Yellow,1.0,4242.0,0,5,1,choice,2,3,-4,-4.0,5,5,1,1,5.0,-3,-4.0,5.0
1174,1883,wbd60b70,Red,0.0,3659.0,1,6,1,choice,1,4,-6,-7.0,5,5,1,2,-7.0,-18,-7.0,-7.0
1175,1884,wbd60b70,Yellow,1.0,3093.0,0,1,2,choice,1,1,-7,-7.0,4,4,1,1,-7.0,-14,-7.0,-7.0
1176,1885,wbd60b70,Animal,,,0,2,2,choice,2,2,3,6.0,4,4,1,1,-1.0,6,6.0,-1.0
1177,1886,wbd60b70,Object,0.0,3514.0,1,3,2,choice,1,1,-8,-5.0,4,4,1,1,-5.0,-8,-5.0,-5.0
1178,1888,wbd60b70,Red,1.0,1004.0,1,5,2,choice,3,3,3,-13.0,4,4,3,4,-13.0,14,-8.0,-8.0
1179,1889,wbd60b70,Scene,1.0,1140.0,1,6,2,choice,3,2,3,-22.0,4,4,2,2,-14.0,-2,-14.0,-14.0
1180,1890,wbd60b70,Blue,1.0,4260.0,0,1,3,choice,2,3,-1,-6.0,4,4,1,2,1.0,0,-6.0,1.0
1181,1891,wbd60b70,Object,,,0,2,3,choice,3,2,-1,-11.0,4,4,2,2,-4.0,0,-4.0,-4.0
1182,1892,wbd60b70,Animal,1.0,2524.0,1,3,3,choice,1,2,8,5.0,4,4,1,2,5.0,16,5.0,5.0
1183,1893,wbd60b70,Red,1.0,2707.0,1,4,3,choice,1,1,6,-9.0,4,4,1,1,-9.0,12,-9.0,-9.0
1184,1894,wbd60b70,Green,1.0,3413.0,0,5,3,choice,3,2,-4,10.0,4,4,2,2,10.0,6,10.0,10.0
1185,1895,wbd60b70,Food,0.0,6006.0,1,6,3,choice,2,1,-6,1.0,4,4,1,1,1.0,2,1.0,1.0
1186,1896,wbd60b70,Food,1.0,2327.0,0,1,4,choice,2,2,-1,2.0,3,3,1,2,9.0,16,9.0,9.0
1187,1897,wbd60b70,Red,0.0,1675.0,0,2,4,choice,3,1,2,-12.0,3,3,2,2,-5.0,15,4.0,4.0
1188,1898,wbd60b70,Yellow,1.0,2857.0,1,3,4,choice,2,1,5,0.0,3,3,1,1,9.0,16,9.0,9.0
1189,1899,wbd60b70,Scene,1.0,2689.0,1,4,4,choice,1,1,4,4.0,3,3,1,1,4.0,8,4.0,4.0
1190,1900,wbd60b70,Animal,0.0,2659.0,1,5,4,choice,3,2,-2,-14.0,3,3,1,1,-9.0,1,-5.0,-9.0
1191,1902,wbd60b70,Yellow,1.0,3890.0,0,1,5,choice,2,2,-4,-10.0,4,4,2,2,-10.0,-8,-10.0,-10.0
1192,1903,wbd60b70,Scene,0.0,1387.0,1,2,5,choice,3,2,-2,-2.0,4,4,2,2,2.0,4,2.0,2.0
1193,1904,wbd60b70,Blue,1.0,5721.0,1,3,5,choice,1,2,9,9.0,4,4,1,2,9.0,18,9.0,9.0
1194,1905,wbd60b70,Object,0.0,4348.0,1,4,5,choice,2,2,-3,-8.0,4,4,2,2,-8.0,-6,-8.0,-8.0
1195,1906,wbd60b70,Green,1.0,6665.0,0,5,5,choice,3,1,-2,-8.0,4,4,1,2,-5.0,-12,-5.0,-5.0
1196,1908,wdfa587e,Red,0.0,2735.0,1,1,1,choice,3,4,-2,-2.0,3,3,1,2,8.0,-9,-2.0,8.0
1197,1909,wdfa587e,Blue,1.0,3468.0,1,2,1,choice,1,6,9,0.0,3,3,1,1,0.0,18,-4.0,0.0
1198,1910,wdfa587e,Animal,0.0,6215.0,1,3,1,choice,2,4,-3,-7.0,3,3,1,1,-3.0,-13,-7.0,-3.0
1199,1912,wdfa587e,Object,0.0,5808.0,1,5,1,choice,3,4,-1,-10.0,3,3,1,1,0.0,-2,-10.0,0.0
1200,1913,wdfa587e,Scene,1.0,1073.0,1,6,1,choice,1,4,7,8.0,3,3,1,2,8.0,14,8.0,8.0
1201,1914,wdfa587e,Food,1.0,3349.0,0,1,2,choice,2,2,-7,2.0,5,5,2,2,2.0,-14,2.0,2.0
1202,1915,wdfa587e,Blue,0.0,2912.0,1,2,2,choice,1,1,-5,-4.0,5,5,1,1,-4.0,-10,-4.0,-4.0
1203,1916,wdfa587e,Object,1.0,6367.0,1,3,2,choice,1,2,3,6.0,5,5,1,1,6.0,6,6.0,6.0
1204,1917,wdfa587e,Yellow,1.0,3589.0,1,4,2,choice,3,2,2,8.0,5,5,2,2,11.0,-12,11.0,11.0
1205,1918,wdfa587e,Red,1.0,3901.0,0,5,2,choice,2,2,-4,3.0,5,5,2,2,3.0,-8,3.0,3.0
1206,1919,wdfa587e,Animal,0.0,4018.0,1,6,2,choice,3,2,-3,-1.0,5,5,2,2,2.0,-22,2.0,2.0
1207,1920,wdfa587e,Object,0.0,3713.0,0,1,3,choice,3,2,1,4.0,5,5,3,3,4.0,-3,-1.0,-1.0
1208,1921,wdfa587e,Yellow,0.0,1469.0,1,2,3,choice,3,2,-5,-2.0,5,5,2,2,2.0,2,2.0,2.0
