,index,wid,option,choice,rt,correct,trial_number,game,phase,multi_time,multi_dim,n_true_memories,value,remembered_value,n_total_memories_shown,n_total_memories,n_remembered_shown,n_remembered,recalled_mem_value
0,1,w593f4a8,Scene,0.0,1272.0,1,1,2,choice,Before,Scene,3,-3,-1.0,4,4,3,3,-1.0
1,3,w593f4a8,Red,1.0,1442.0,1,1,4,choice,Before,Red,1,1,1.0,4,4,1,1,1.0
2,4,w593f4a8,Animal,,,0,1,5,choice,After,Animal,2,-1,0.0,6,6,2,2,0.0
3,5,w593f4a8,Red,1.0,908.0,1,1,6,choice,Before,Red,2,1,1.0,5,5,2,2,1.0
4,6,w593f4a8,Blue,1.0,1770.0,1,1,8,choice,Before,Blue,3,1,1.0,4,4,3,3,1.0
5,13,w13e388b,Object,,,0,1,1,choice,After,Object,2,-4,-1.0,4,4,1,2,0.0
6,14,w13e388b,Yellow,0.0,2255.0,1,1,2,choice,Before,Yellow,3,-2,-4.0,5,5,3,3,-4.0
7,15,w13e388b,Animal,1.0,4999.0,0,1,3,choice,After,Animal,2,-1,1.0,4,4,2,3,1.0
8,16,w13e388b,Red,1.0,1127.0,0,1,4,choice,Before,Red,1,-1,-1.0,4,4,1,2,-1.0
9,17,w13e388b,Scene,1.0,4942.0,1,1,5,choice,After,Scene,3,1,2.0,4,4,1,2,-1.0
10,18,w13e388b,Food,1.0,997.0,1,1,6,choice,Before,Food,3,1,2.0,5,5,3,3,2.0
11,19,w13e388b,Red,0.0,4608.0,1,1,7,choice,After,Red,1,-2,-2.0,5,5,1,2,-2.0
12,20,w13e388b,Object,1.0,692.0,1,1,8,choice,Before,Object,2,1,1.0,5,5,2,2,1.0
13,27,w479605b,Food,0.0,5016.0,1,1,1,choice,After,Food,1,-2,-2.0,4,4,1,1,-2.0
14,28,w479605b,Object,,,0,1,2,choice,Before,Object,2,-3,-3.0,5,5,1,1,-1.0
15,30,w479605b,Red,1.0,992.0,1,1,4,choice,Before,Red,3,1,3.0,4,4,2,2,1.0
16,31,w479605b,Animal,1.0,2808.0,1,1,5,choice,After,Animal,3,2,0.0,4,4,1,1,2.0
17,32,w479605b,Red,0.0,1957.0,1,1,6,choice,Before,Red,2,-1,-1.0,4,4,2,2,-1.0
18,33,w479605b,Scene,1.0,2866.0,1,1,7,choice,After,Scene,2,4,4.0,3,3,1,2,2.0
19,34,w479605b,Blue,0.0,1358.0,1,1,8,choice,Before,Blue,3,-2,-5.0,3,3,3,4,-5.0
20,41,w383e1fe,Food,1.0,3678.0,0,1,1,choice,Before,Food,3,-3,-3.0,5,5,3,3,-3.0
21,42,w383e1fe,Green,1.0,3747.0,0,1,2,choice,After,Green,2,-1,-1.0,6,6,2,2,-1.0
22,43,w383e1fe,Object,1.0,1379.0,0,1,3,choice,Before,Object,3,-2,-2.0,6,6,3,3,-2.0
23,44,w383e1fe,Animal,1.0,2556.0,0,1,4,choice,After,Animal,2,-1,-1.0,6,6,2,2,-1.0
24,45,w383e1fe,Yellow,1.0,1264.0,1,1,5,choice,Before,Yellow,1,2,2.0,6,6,1,1,2.0
25,46,w383e1fe,Red,,,0,1,6,choice,After,Red,3,2,2.0,6,6,3,3,2.0
26,47,w383e1fe,Food,1.0,1186.0,1,1,7,choice,Before,Food,2,4,4.0,6,6,2,2,4.0
27,48,w383e1fe,Food,0.0,3877.0,1,1,8,choice,After,Food,1,-2,-2.0,6,6,1,1,-2.0
28,55,wc73f4d8,Object,0.0,5337.0,1,1,1,choice,Before,Object,3,-1,-1.0,4,4,2,3,1.0
29,56,wc73f4d8,Green,,,0,1,2,choice,After,Green,1,-2,-2.0,6,6,1,1,-2.0
30,57,wc73f4d8,Food,1.0,2652.0,0,1,3,choice,Before,Food,3,-3,-3.0,4,4,2,3,-2.0
31,58,wc73f4d8,Red,0.0,2823.0,1,1,4,choice,After,Red,1,-1,2.0,5,5,1,1,2.0
32,59,wc73f4d8,Green,1.0,2330.0,1,1,5,choice,Before,Green,3,3,3.0,4,4,3,3,3.0
33,60,wc73f4d8,Scene,0.0,2051.0,1,1,6,choice,After,Scene,3,-1,-2.0,6,6,3,3,-2.0
34,61,wc73f4d8,Green,0.0,1298.0,1,1,7,choice,Before,Green,3,-1,-3.0,4,4,3,4,-3.0
35,62,wc73f4d8,Scene,0.0,2006.0,1,1,8,choice,After,Scene,1,-2,-2.0,4,4,1,2,-2.0
36,69,webf5097,Scene,1.0,3718.0,0,1,1,choice,After,Scene,2,-1,0.0,5,5,2,2,0.0
37,70,webf5097,Food,1.0,1913.0,1,1,2,choice,Before,Food,3,2,2.0,5,5,3,3,2.0
38,71,webf5097,Animal,0.0,4482.0,1,1,3,choice,After,Animal,2,-3,-3.0,5,5,2,2,-3.0
39,72,webf5097,Red,1.0,1265.0,1,1,4,choice,Before,Red,3,1,1.0,5,5,3,3,1.0
40,73,webf5097,Red,0.0,4735.0,1,1,5,choice,After,Red,2,-2,-2.0,5,5,2,2,-2.0
41,74,webf5097,Scene,1.0,1516.0,1,1,6,choice,Before,Scene,2,3,3.0,6,6,2,2,3.0
42,75,webf5097,Food,1.0,4580.0,1,1,7,choice,After,Food,1,2,2.0,4,4,1,2,2.0
43,76,webf5097,Yellow,0.0,1519.0,1,1,8,choice,Before,Yellow,2,-1,-1.0,5,5,1,2,-2.0
44,84,w68730bb,Green,0.0,1637.0,1,1,2,choice,Before,Green,2,-3,4.0,3,3,1,1,2.0
45,85,w68730bb,Animal,1.0,2152.0,1,1,4,choice,Before,Animal,2,1,0.0,2,2,1,2,1.0
46,86,w68730bb,Yellow,0.0,1577.0,1,1,6,choice,Before,Yellow,2,-2,-3.0,2,2,1,1,-1.0
47,96,we9631be,Blue,1.0,1501.0,0,1,4,choice,After,Blue,2,-1,4.0,3,3,1,1,2.0
48,107,w245142a,Yellow,1.0,3632.0,1,1,1,choice,After,Yellow,3,1,4.0,4,4,1,1,1.0
49,108,w245142a,Food,0.0,1941.0,1,1,2,choice,Before,Food,3,-3,-3.0,5,5,3,3,-3.0
50,109,w245142a,Scene,0.0,5341.0,1,1,3,choice,After,Scene,3,-3,-3.0,4,4,2,2,-4.0
51,110,w245142a,Green,1.0,2344.0,1,1,4,choice,Before,Green,1,2,2.0,5,5,1,1,2.0
52,111,w245142a,Blue,0.0,7481.0,0,1,5,choice,After,Blue,1,2,2.0,6,6,1,1,2.0
53,112,w245142a,Green,0.0,901.0,1,1,6,choice,Before,Green,3,-2,-2.0,2,2,2,2,-3.0
54,113,w245142a,Food,1.0,2015.0,0,1,7,choice,After,Food,1,-1,1.0,3,3,1,1,1.0
55,114,w245142a,Object,1.0,376.0,1,1,8,choice,Before,Object,3,2,2.0,5,5,3,3,2.0
56,122,w4bf9dec,Green,0.0,2690.0,1,1,2,choice,After,Green,1,-2,-2.0,6,6,1,1,-2.0
57,123,w4bf9dec,Animal,1.0,3712.0,0,1,3,choice,Before,Animal,2,-1,-2.0,6,6,2,2,-2.0
58,124,w4bf9dec,Object,1.0,3989.0,1,1,4,choice,After,Object,1,1,1.0,5,5,1,1,1.0
59,125,w4bf9dec,Yellow,1.0,1434.0,1,1,5,choice,Before,Yellow,2,3,3.0,6,6,2,2,3.0
60,126,w4bf9dec,Green,0.0,2580.0,0,1,6,choice,After,Green,3,3,1.0,5,5,2,2,-1.0
61,127,w4bf9dec,Animal,1.0,2186.0,0,1,7,choice,Before,Animal,1,-1,-1.0,4,4,1,2,-1.0
62,128,w4bf9dec,Blue,1.0,5224.0,1,1,8,choice,After,Blue,3,2,2.0,2,2,1,2,1.0
63,135,w277fccf,Food,0.0,4625.0,0,1,1,choice,After,Food,3,2,-5.0,2,2,1,1,-2.0
64,136,w277fccf,Green,1.0,4192.0,0,1,2,choice,Before,Green,2,-3,-3.0,5,5,2,2,-3.0
65,137,w277fccf,Scene,,,0,1,3,choice,After,Scene,1,1,1.0,5,5,1,2,1.0
66,138,w277fccf,Animal,0.0,2866.0,1,1,4,choice,Before,Animal,2,-1,-1.0,5,5,2,2,-1.0
67,139,w277fccf,Scene,1.0,5163.0,0,1,5,choice,After,Scene,3,-1,-1.0,6,6,3,3,-1.0
68,140,w277fccf,Yellow,0.0,2546.0,1,1,6,choice,Before,Yellow,2,-1,-1.0,6,6,2,2,-1.0
69,141,w277fccf,Red,1.0,5637.0,1,1,7,choice,After,Red,1,2,2.0,6,6,1,1,2.0
70,142,w277fccf,Red,1.0,1415.0,1,1,8,choice,Before,Red,3,6,6.0,5,5,2,2,4.0
71,150,w50c12e5,Yellow,1.0,3501.0,1,1,2,choice,Before,Yellow,3,1,-1.0,5,5,3,3,-1.0
72,151,w50c12e5,Scene,1.0,5764.0,0,1,3,choice,After,Scene,1,-2,-2.0,4,4,1,1,-2.0
73,153,w50c12e5,Green,0.0,3379.0,1,1,5,choice,After,Green,3,-1,-1.0,4,4,3,3,-1.0
74,154,w50c12e5,Scene,1.0,1514.0,1,1,6,choice,Before,Scene,1,2,2.0,3,3,1,1,2.0
75,155,w50c12e5,Scene,0.0,2501.0,1,1,7,choice,After,Scene,3,-2,-5.0,2,2,1,2,-2.0
76,156,w50c12e5,Blue,1.0,1888.0,1,1,8,choice,Before,Blue,2,1,1.0,4,4,2,2,1.0
77,177,w8d745f1,Green,1.0,4113.0,1,1,1,choice,After,Green,2,1,-4.0,4,4,1,1,-2.0
78,178,w8d745f1,Red,1.0,4208.0,0,1,2,choice,Before,Red,3,-2,-2.0,5,5,2,2,0.0
79,179,w8d745f1,Scene,1.0,5763.0,1,1,3,choice,After,Scene,1,2,2.0,6,6,1,1,2.0
80,180,w8d745f1,Red,0.0,6718.0,1,1,4,choice,Before,Red,1,-1,-1.0,6,6,1,1,-1.0
81,181,w8d745f1,Green,0.0,4323.0,1,1,5,choice,After,Green,3,-1,-1.0,6,6,3,3,-1.0
82,182,w8d745f1,Yellow,0.0,4064.0,1,1,6,choice,Before,Yellow,1,-2,-2.0,6,6,1,1,-2.0
83,183,w8d745f1,Scene,1.0,3173.0,0,1,7,choice,After,Scene,3,-2,-2.0,6,6,3,3,-2.0
84,184,w8d745f1,Food,1.0,6406.0,1,1,8,choice,Before,Food,1,1,1.0,5,5,1,1,1.0
85,205,w02461c5,Red,0.0,4774.0,1,1,1,choice,Before,Red,2,-1,-4.0,5,5,2,2,-4.0
86,206,w02461c5,Scene,1.0,3562.0,1,1,2,choice,After,Scene,3,3,3.0,5,5,3,3,3.0
87,208,w02461c5,Animal,0.0,4378.0,1,1,4,choice,After,Animal,3,-1,1.0,4,4,2,2,0.0
88,209,w02461c5,Object,0.0,1534.0,1,1,5,choice,Before,Object,3,-1,-2.0,4,4,2,2,-3.0
89,210,w02461c5,Yellow,0.0,2307.0,0,1,6,choice,After,Yellow,1,2,2.0,3,3,1,1,2.0
90,211,w02461c5,Food,,,0,1,8,choice,After,Food,3,2,1.0,1,1,1,1,1.0
91,218,wcc15547,Yellow,1.0,2664.0,1,1,1,choice,Before,Yellow,2,1,-3.0,4,4,1,1,-2.0
92,220,wcc15547,Animal,1.0,2317.0,0,1,3,choice,Before,Animal,3,-2,0.0,2,2,1,1,-1.0
93,221,wcc15547,Object,1.0,2709.0,0,1,4,choice,After,Object,3,-2,3.0,3,3,2,3,4.0
94,222,wcc15547,Green,1.0,1877.0,0,1,5,choice,Before,Green,3,-2,1.0,4,4,2,2,3.0
95,223,wcc15547,Blue,0.0,1899.0,1,1,6,choice,After,Blue,3,-3,-1.0,1,1,1,2,-1.0
96,225,wcc15547,Yellow,0.0,1750.0,0,1,8,choice,After,Yellow,2,4,2.0,2,2,1,2,1.0
97,232,w3b16ba3,Yellow,0.0,7061.0,1,1,1,choice,Before,Yellow,3,-5,-4.0,2,2,1,1,-2.0
98,233,w3b16ba3,Scene,1.0,3821.0,1,1,2,choice,After,Scene,3,3,3.0,4,4,3,3,3.0
99,234,w3b16ba3,Scene,1.0,1164.0,1,1,3,choice,Before,Scene,2,4,3.0,5,5,2,2,3.0
100,235,w3b16ba3,Animal,0.0,2064.0,0,1,4,choice,After,Animal,3,3,1.0,4,4,2,2,0.0
101,236,w3b16ba3,Yellow,1.0,1727.0,1,1,5,choice,Before,Yellow,1,1,1.0,5,5,1,1,1.0
102,237,w3b16ba3,Red,1.0,1194.0,1,1,6,choice,After,Red,3,2,2.0,5,5,3,3,2.0
103,238,w3b16ba3,Red,0.0,1550.0,1,1,7,choice,Before,Red,1,-2,-2.0,3,3,1,1,-2.0
104,239,w3b16ba3,Yellow,1.0,3975.0,1,1,8,choice,After,Yellow,2,2,1.0,4,4,1,1,-1.0
105,259,w08f65eb,Food,1.0,1855.0,0,1,2,choice,Before,Food,2,-2,-2.0,6,6,2,2,-2.0
106,262,w08f65eb,Yellow,0.0,1848.0,0,1,5,choice,After,Yellow,1,2,-2.0,3,3,1,1,-2.0
107,264,w08f65eb,Food,0.0,1684.0,1,1,7,choice,After,Food,2,-1,1.0,1,1,1,1,2.0
108,266,w90f4896,Object,1.0,3281.0,1,1,1,choice,After,Object,3,2,2.0,2,2,1,1,2.0
109,267,w90f4896,Object,1.0,3790.0,1,1,2,choice,Before,Object,2,3,3.0,5,5,2,3,3.0
110,268,w90f4896,Red,,,0,1,3,choice,After,Red,2,2,2.0,5,5,2,3,2.0
111,270,w90f4896,Scene,1.0,3845.0,0,1,5,choice,After,Scene,1,-2,-2.0,5,5,1,2,-2.0
112,271,w90f4896,Scene,1.0,1056.0,1,1,6,choice,Before,Scene,2,2,3.0,4,4,2,2,3.0
113,272,w90f4896,Yellow,0.0,2580.0,0,1,7,choice,After,Yellow,2,1,3.0,5,5,1,2,2.0
114,273,w90f4896,Red,0.0,1414.0,1,1,8,choice,Before,Red,1,-1,-1.0,6,6,1,1,-1.0
115,280,we2434bb,Red,0.0,3786.0,1,1,1,choice,Before,Red,2,-1,-2.0,4,4,1,1,-1.0
116,281,we2434bb,Scene,1.0,5706.0,0,1,2,choice,After,Scene,3,-1,-1.0,5,5,3,3,-1.0
117,282,we2434bb,Scene,0.0,2752.0,1,1,3,choice,Before,Scene,2,-3,-2.0,3,3,2,3,-2.0
118,283,we2434bb,Blue,1.0,7155.0,1,1,4,choice,After,Blue,2,1,1.0,4,4,2,3,1.0
119,284,we2434bb,Food,0.0,1186.0,1,1,5,choice,Before,Food,1,-2,-2.0,5,5,1,1,-2.0
120,285,we2434bb,Scene,1.0,5071.0,1,1,6,choice,After,Scene,3,3,3.0,6,6,3,3,3.0
121,286,we2434bb,Green,1.0,2398.0,1,1,7,choice,Before,Green,3,1,1.0,3,3,3,3,1.0
122,287,we2434bb,Red,0.0,2540.0,1,1,8,choice,After,Red,3,-1,-1.0,4,4,3,3,-1.0
123,294,w05f4989,Yellow,0.0,3220.0,0,1,1,choice,Before,Yellow,2,1,1.0,6,6,2,2,1.0
124,295,w05f4989,Yellow,,,0,1,2,choice,After,Yellow,3,2,2.0,6,6,3,3,2.0
125,296,w05f4989,Green,1.0,2004.0,1,1,3,choice,Before,Green,1,1,1.0,6,6,1,1,1.0
126,297,w05f4989,Animal,1.0,5940.0,0,1,4,choice,After,Animal,2,-1,-1.0,6,6,2,2,-1.0
127,298,w05f4989,Green,0.0,1162.0,1,1,5,choice,Before,Green,3,-2,-2.0,6,6,3,3,-2.0
128,299,w05f4989,Scene,1.0,2465.0,1,1,6,choice,After,Scene,1,1,1.0,6,6,1,1,1.0
129,300,w05f4989,Green,0.0,1936.0,1,1,7,choice,Before,Green,3,-1,-1.0,5,5,2,3,0.0
130,301,w05f4989,Food,1.0,3269.0,1,1,8,choice,After,Food,3,1,1.0,6,6,3,3,1.0
131,309,w4ed0320,Blue,1.0,2484.0,1,1,2,choice,After,Blue,2,1,1.0,5,5,2,2,1.0
132,310,w4ed0320,Food,0.0,1739.0,1,1,3,choice,Before,Food,3,-4,-4.0,6,6,3,3,-4.0
133,311,w4ed0320,Scene,1.0,6635.0,1,1,4,choice,After,Scene,2,1,1.0,6,6,2,2,1.0
134,312,w4ed0320,Green,1.0,1085.0,1,1,5,choice,Before,Green,3,3,2.0,4,4,2,2,4.0
135,313,w4ed0320,Scene,,,0,1,6,choice,After,Scene,2,-4,1.0,6,6,2,2,1.0
136,314,w4ed0320,Scene,0.0,605.0,1,1,7,choice,Before,Scene,3,-5,-3.0,6,6,3,3,-3.0
137,315,w4ed0320,Blue,1.0,2514.0,1,1,8,choice,After,Blue,3,2,-1.0,2,2,1,1,2.0
138,322,w4dce7b5,Food,1.0,2915.0,0,1,1,choice,Before,Food,1,-1,2.0,4,4,1,2,2.0
139,323,w4dce7b5,Red,1.0,3200.0,1,1,2,choice,After,Red,1,2,2.0,5,5,1,1,4.0
140,324,w4dce7b5,Yellow,1.0,1578.0,1,1,3,choice,Before,Yellow,3,3,-3.0,6,6,3,3,-3.0
141,325,w4dce7b5,Object,1.0,1726.0,1,1,4,choice,After,Object,3,2,0.0,2,2,2,2,1.0
142,327,w605fd50,Food,0.0,3026.0,1,1,1,choice,Before,Food,1,-2,-2.0,4,4,1,2,-2.0
143,328,w605fd50,Scene,0.0,7115.0,1,1,2,choice,After,Scene,3,-1,-1.0,5,5,2,2,-3.0
144,330,w605fd50,Red,0.0,6503.0,1,1,4,choice,After,Red,1,-2,-2.0,5,5,1,2,-2.0
145,331,w605fd50,Green,1.0,767.0,1,1,5,choice,Before,Green,3,2,2.0,4,4,3,3,2.0
146,332,w605fd50,Food,0.0,5049.0,1,1,6,choice,After,Food,2,-3,-1.0,5,5,2,2,-1.0
147,333,w605fd50,Scene,0.0,1097.0,1,1,7,choice,Before,Scene,1,-2,-2.0,4,4,1,1,-2.0
148,334,w605fd50,Green,1.0,2155.0,0,1,8,choice,After,Green,1,-2,1.0,1,1,1,4,1.0
149,341,wb772565,Object,0.0,2202.0,1,1,1,choice,Before,Object,2,-2,-2.0,6,6,2,2,-2.0
150,342,wb772565,Blue,,,0,1,2,choice,After,Blue,1,-1,-2.0,5,5,1,2,-2.0
151,343,wb772565,Green,1.0,1591.0,1,1,3,choice,Before,Green,2,3,3.0,5,5,1,1,2.0
152,344,wb772565,Object,1.0,1783.0,1,1,4,choice,After,Object,3,2,2.0,5,5,3,3,2.0
153,345,wb772565,Green,1.0,1005.0,1,1,5,choice,Before,Green,3,4,4.0,6,6,3,3,4.0
154,346,wb772565,Food,0.0,3616.0,1,1,6,choice,After,Food,3,-1,0.0,5,5,3,3,0.0
155,348,wb772565,Blue,1.0,2364.0,1,1,8,choice,After,Blue,2,3,3.0,3,3,1,2,2.0
156,356,w3fdf5b1,Food,1.0,2133.0,1,1,2,choice,Before,Food,2,2,2.0,5,5,2,2,2.0
157,357,w3fdf5b1,Green,1.0,5612.0,1,1,3,choice,After,Green,2,1,-1.0,6,6,2,2,-1.0
158,358,w3fdf5b1,Yellow,1.0,3330.0,0,1,4,choice,Before,Yellow,2,-1,2.0,3,3,1,1,1.0
159,359,w3fdf5b1,Blue,1.0,1664.0,0,1,5,choice,After,Blue,2,-1,0.0,6,6,2,2,0.0
160,360,w3fdf5b1,Animal,0.0,5036.0,1,1,6,choice,Before,Animal,2,-3,-2.0,5,5,1,1,-1.0
161,361,w3fdf5b1,Yellow,0.0,3866.0,1,1,7,choice,After,Yellow,3,-2,3.0,5,5,2,3,2.0
162,362,w3fdf5b1,Blue,0.0,3178.0,0,1,8,choice,Before,Blue,2,1,1.0,5,5,2,2,1.0
163,369,w11538ef,Blue,1.0,3038.0,1,1,1,choice,Before,Blue,3,1,2.0,3,3,1,1,2.0
164,370,w11538ef,Food,,,0,1,2,choice,After,Food,1,-1,-1.0,5,5,1,1,-1.0
165,371,w11538ef,Scene,1.0,2537.0,1,1,3,choice,Before,Scene,1,1,1.0,4,4,1,1,1.0
166,372,w11538ef,Animal,1.0,2313.0,1,1,4,choice,After,Animal,3,2,2.0,6,6,3,3,2.0
167,373,w11538ef,Animal,1.0,1598.0,1,1,5,choice,Before,Animal,2,2,2.0,5,5,2,3,2.0
168,374,w11538ef,Red,0.0,5223.0,1,1,6,choice,After,Red,2,-3,-2.0,6,6,2,2,-2.0
169,375,w11538ef,Yellow,1.0,2710.0,1,1,7,choice,Before,Yellow,2,3,3.0,5,5,2,2,3.0
170,376,w11538ef,Blue,0.0,5705.0,1,1,8,choice,After,Blue,3,-3,1.0,6,6,3,3,1.0
171,384,wdab535b,Animal,0.0,4937.0,0,1,2,choice,After,Animal,1,1,1.0,3,3,1,1,1.0
172,385,wdab535b,Yellow,0.0,1302.0,1,1,3,choice,Before,Yellow,1,-2,1.0,3,3,1,1,1.0
173,387,wdab535b,Blue,0.0,1430.0,1,1,5,choice,Before,Blue,2,-4,-4.0,3,3,2,2,-4.0
174,388,wdab535b,Red,1.0,2484.0,0,1,6,choice,After,Red,3,-4,-4.0,1,1,1,1,-2.0
175,397,wc294ae3,Green,1.0,2379.0,1,1,2,choice,Before,Green,1,2,-1.0,5,5,1,1,-1.0
176,398,wc294ae3,Red,0.0,3273.0,1,1,3,choice,After,Red,2,-1,0.0,5,5,2,2,0.0
177,399,wc294ae3,Animal,1.0,1302.0,0,1,4,choice,Before,Animal,3,-3,3.0,2,2,1,1,2.0
178,401,wc294ae3,Scene,1.0,3893.0,1,1,6,choice,Before,Scene,3,1,2.0,3,3,1,1,2.0
179,402,wc294ae3,Green,0.0,4469.0,1,1,7,choice,After,Green,3,-3,4.0,3,3,2,2,3.0
180,403,wc294ae3,Food,0.0,1556.0,1,1,8,choice,Before,Food,3,-2,-2.0,3,3,2,2,-3.0
181,410,w0d62ec5,Blue,0.0,2381.0,1,1,1,choice,Before,Blue,2,-3,-4.0,5,5,2,2,-4.0
182,411,w0d62ec5,Green,0.0,1648.0,1,1,2,choice,After,Green,3,-1,-1.0,6,6,3,3,-1.0
183,412,w0d62ec5,Object,1.0,3365.0,1,1,3,choice,Before,Object,1,2,2.0,5,5,1,1,2.0
184,415,w0d62ec5,Food,1.0,1722.0,0,1,6,choice,After,Food,3,-1,4.0,2,2,1,1,2.0
185,416,w0d62ec5,Green,0.0,649.0,1,1,7,choice,Before,Green,1,-2,-2.0,5,5,1,1,-2.0
186,417,w0d62ec5,Blue,0.0,7293.0,0,1,8,choice,After,Blue,3,2,3.0,3,3,2,2,4.0
187,424,wb0b75c3,Scene,0.0,2331.0,1,1,1,choice,Before,Scene,2,-1,-1.0,5,5,2,3,-1.0
188,425,wb0b75c3,Green,0.0,3844.0,1,1,2,choice,After,Green,3,-3,-3.0,6,6,3,3,-3.0
189,426,wb0b75c3,Red,,,0,1,3,choice,Before,Red,3,-2,1.0,4,4,2,2,0.0
190,427,wb0b75c3,Object,1.0,3573.0,0,1,4,choice,After,Object,2,-1,3.0,4,4,2,2,3.0
191,428,wb0b75c3,Object,1.0,2943.0,1,1,5,choice,Before,Object,1,1,1.0,5,5,1,1,1.0
192,429,wb0b75c3,Yellow,0.0,5138.0,1,1,6,choice,After,Yellow,1,-1,1.0,5,5,1,1,1.0
193,430,wb0b75c3,Food,1.0,1760.0,1,1,7,choice,Before,Food,1,2,-2.0,4,4,1,1,-2.0
194,431,wb0b75c3,Yellow,1.0,1833.0,1,1,8,choice,After,Yellow,2,4,4.0,4,4,2,2,4.0
195,438,w4400cbf,Yellow,1.0,1481.0,1,1,1,choice,After,Yellow,3,4,4.0,5,5,2,2,3.0
196,439,w4400cbf,Object,0.0,3609.0,1,1,2,choice,Before,Object,1,-2,-2.0,5,5,1,1,-2.0
197,440,w4400cbf,Scene,0.0,5359.0,0,1,3,choice,After,Scene,2,2,-2.0,6,6,2,2,-2.0
198,441,w4400cbf,Yellow,0.0,1815.0,1,1,4,choice,Before,Yellow,3,-1,-1.0,5,5,3,3,-1.0
199,443,w4400cbf,Blue,1.0,4188.0,0,1,6,choice,Before,Blue,2,-3,-3.0,5,5,2,2,-3.0
200,444,w4400cbf,Red,0.0,5747.0,1,1,7,choice,After,Red,1,-2,-2.0,5,5,1,1,-2.0
201,445,w4400cbf,Animal,0.0,4824.0,1,1,8,choice,Before,Animal,2,-3,-3.0,5,5,2,2,-3.0
202,465,wbc79189,Red,1.0,1567.0,1,1,1,choice,After,Red,2,3,3.0,6,6,2,2,3.0
203,466,wbc79189,Food,1.0,2856.0,1,1,2,choice,Before,Food,2,1,1.0,6,6,2,2,1.0
204,467,wbc79189,Animal,0.0,5279.0,0,1,3,choice,After,Animal,1,2,1.0,5,5,1,1,1.0
205,468,wbc79189,Scene,0.0,1029.0,1,1,4,choice,Before,Scene,2,-1,-1.0,4,4,2,2,-1.0
206,469,wbc79189,Yellow,0.0,5458.0,1,1,5,choice,After,Yellow,1,-1,-1.0,5,5,1,2,-1.0
207,470,wbc79189,Food,1.0,814.0,1,1,6,choice,Before,Food,2,1,1.0,5,5,2,2,1.0
208,471,wbc79189,Red,0.0,2147.0,1,1,7,choice,After,Red,1,-2,-2.0,5,5,1,1,-2.0
209,472,wbc79189,Scene,0.0,1265.0,1,1,8,choice,Before,Scene,1,-2,-2.0,6,6,1,1,-2.0
210,479,w6bec3e7,Blue,1.0,4338.0,1,1,1,choice,After,Blue,2,3,3.0,5,5,2,2,3.0
211,480,w6bec3e7,Scene,0.0,7361.0,1,1,2,choice,Before,Scene,1,-1,-1.0,5,5,1,1,-1.0
212,481,w6bec3e7,Red,,,0,1,3,choice,After,Red,3,2,2.0,6,6,3,3,2.0
213,482,w6bec3e7,Animal,1.0,1137.0,1,1,4,choice,Before,Animal,1,2,2.0,2,2,1,1,2.0
214,483,w6bec3e7,Scene,1.0,3672.0,0,1,5,choice,After,Scene,2,-1,1.0,5,5,2,2,1.0
215,484,w6bec3e7,Food,0.0,772.0,1,1,6,choice,Before,Food,3,-2,-2.0,4,4,3,3,-2.0
216,485,w6bec3e7,Green,1.0,4476.0,0,1,7,choice,After,Green,1,-2,-1.0,4,4,1,2,-1.0
217,486,w6bec3e7,Yellow,1.0,1018.0,1,1,8,choice,Before,Yellow,2,3,3.0,3,3,2,2,3.0
218,493,w6ea0c26,Blue,1.0,5935.0,1,1,1,choice,Before,Blue,2,1,-1.0,4,4,1,2,1.0
219,494,w6ea0c26,Object,0.0,4081.0,1,1,2,choice,After,Object,2,-1,-1.0,3,3,1,1,-2.0
220,495,w6ea0c26,Red,1.0,995.0,1,1,3,choice,Before,Red,3,2,1.0,5,5,2,3,0.0
221,497,w6ea0c26,Scene,1.0,4568.0,0,1,5,choice,Before,Scene,2,-1,-3.0,6,6,1,1,-2.0
222,498,w6ea0c26,Scene,0.0,3222.0,0,1,6,choice,After,Scene,2,1,0.0,3,3,1,1,-2.0
223,499,w6ea0c26,Scene,0.0,1264.0,1,1,7,choice,Before,Scene,2,-1,0.0,4,4,2,3,0.0
224,507,w924a500,Scene,,,0,1,1,choice,Before,Scene,1,1,1.0,6,6,1,1,1.0
225,508,w924a500,Green,0.0,4010.0,1,1,2,choice,After,Green,2,-2,-2.0,5,5,2,3,-2.0
226,509,w924a500,Scene,1.0,3547.0,0,1,3,choice,Before,Scene,1,-1,-2.0,4,4,1,3,-2.0
227,510,w924a500,Food,1.0,3658.0,1,1,4,choice,After,Food,1,2,2.0,6,6,1,1,2.0
228,511,w924a500,Animal,0.0,6181.0,1,1,5,choice,Before,Animal,2,-1,0.0,6,6,2,2,0.0
229,512,w924a500,Yellow,0.0,5205.0,0,1,6,choice,After,Yellow,2,1,-2.0,6,6,2,2,-2.0
230,513,w924a500,Yellow,1.0,1566.0,1,1,7,choice,Before,Yellow,3,1,1.0,4,4,2,2,-1.0
231,514,w924a500,Object,1.0,4996.0,0,1,8,choice,After,Object,2,-3,-3.0,6,6,2,2,-3.0
232,521,w10f7bc5,Green,1.0,2735.0,0,1,1,choice,After,Green,1,-1,1.0,4,4,1,2,1.0
233,522,w10f7bc5,Red,1.0,1710.0,1,1,4,choice,Before,Red,1,2,2.0,3,3,1,1,2.0
234,525,w10f7bc5,Object,0.0,2133.0,1,1,7,choice,After,Object,3,-1,-1.0,3,3,2,2,0.0
235,526,w10f7bc5,Food,1.0,1120.0,1,1,8,choice,Before,Food,3,2,2.0,3,3,3,3,2.0
236,533,w2c75db7,Blue,0.0,2380.0,1,1,1,choice,After,Blue,3,-2,-4.0,6,6,3,3,-4.0
237,534,w2c75db7,Food,0.0,2736.0,1,1,2,choice,Before,Food,2,-3,-3.0,4,4,1,2,-2.0
238,535,w2c75db7,Green,1.0,5947.0,1,1,3,choice,After,Green,2,3,2.0,3,3,1,2,2.0
239,536,w2c75db7,Food,0.0,1442.0,1,1,4,choice,Before,Food,1,-1,-1.0,3,3,1,1,-1.0
240,537,w2c75db7,Green,0.0,3924.0,1,1,5,choice,After,Green,3,-1,-1.0,4,4,2,2,0.0
241,538,w2c75db7,Scene,0.0,1876.0,1,1,6,choice,Before,Scene,1,-1,-1.0,3,3,1,1,-1.0
242,539,w2c75db7,Scene,0.0,6039.0,0,1,7,choice,After,Scene,3,2,-2.0,5,5,2,2,-3.0
243,540,w2c75db7,Animal,1.0,1761.0,1,1,8,choice,Before,Animal,3,1,1.0,5,5,3,3,1.0
244,548,w2c1f2f7,Food,1.0,2205.0,1,1,2,choice,After,Food,1,1,2.0,3,3,1,2,2.0
245,549,w2c1f2f7,Red,1.0,1966.0,1,1,3,choice,Before,Red,2,1,2.0,3,3,2,3,2.0
246,550,w2c1f2f7,Red,0.0,2373.0,1,1,4,choice,After,Red,1,-1,-1.0,4,4,1,1,-1.0
247,551,w2c1f2f7,Animal,1.0,1073.0,0,1,5,choice,Before,Animal,2,-3,-1.0,4,4,2,3,-1.0
248,552,w2c1f2f7,Object,0.0,2552.0,1,1,6,choice,After,Object,1,-2,2.0,5,5,1,1,2.0
249,553,w2c1f2f7,Animal,1.0,1569.0,1,1,7,choice,Before,Animal,1,2,2.0,5,5,1,1,2.0
250,554,w2c1f2f7,Red,,,0,1,8,choice,After,Red,1,-1,-1.0,5,5,1,1,-1.0
251,562,wace8728,Yellow,0.0,2098.0,1,1,2,choice,After,Yellow,3,-1,0.0,5,5,3,3,0.0
252,563,wace8728,Green,0.0,936.0,1,1,3,choice,Before,Green,2,-2,0.0,2,2,1,2,0.0
253,564,wace8728,Animal,1.0,4596.0,1,1,4,choice,After,Animal,2,4,0.0,3,3,1,1,0.0
254,565,wace8728,Scene,0.0,2111.0,1,1,5,choice,Before,Scene,3,-2,0.0,1,1,1,1,0.0
255,566,wace8728,Red,1.0,2584.0,1,1,6,choice,After,Red,3,3,0.0,2,2,2,2,0.0
256,567,wace8728,Object,0.0,4722.0,0,1,7,choice,Before,Object,1,1,0.0,5,5,1,1,0.0
257,568,wace8728,Blue,1.0,4410.0,0,1,8,choice,After,Blue,2,-1,0.0,3,3,1,2,0.0
258,575,wd07cb72,Green,1.0,1821.0,1,1,1,choice,Before,Green,1,2,2.0,5,5,1,1,2.0
259,576,wd07cb72,Object,,,0,1,2,choice,After,Object,1,-2,-1.0,6,6,1,1,-1.0
260,577,wd07cb72,Scene,0.0,744.0,1,1,3,choice,Before,Scene,2,-1,-3.0,5,5,2,2,-3.0
261,578,wd07cb72,Object,,,0,1,4,choice,After,Object,1,2,2.0,4,4,1,1,2.0
262,579,wd07cb72,Green,0.0,499.0,1,1,5,choice,Before,Green,3,-3,-3.0,4,4,2,2,-1.0
263,580,wd07cb72,Red,0.0,2508.0,1,1,6,choice,After,Red,3,-2,-2.0,6,6,3,3,-2.0
264,581,wd07cb72,Scene,0.0,2167.0,1,1,7,choice,Before,Scene,1,-2,-2.0,5,5,1,2,-2.0
265,582,wd07cb72,Yellow,1.0,1591.0,1,1,8,choice,After,Yellow,2,2,2.0,4,4,1,1,1.0
266,589,w0fd8c2c,Food,,,0,1,1,choice,After,Food,3,-2,-2.0,5,5,3,3,-2.0
267,590,w0fd8c2c,Green,1.0,2793.0,1,1,2,choice,Before,Green,2,1,1.0,4,4,2,2,1.0
268,591,w0fd8c2c,Animal,0.0,4021.0,1,1,3,choice,After,Animal,2,-4,-4.0,3,3,1,1,-2.0
269,592,w0fd8c2c,Blue,0.0,2661.0,1,1,4,choice,Before,Blue,3,-1,-1.0,6,6,3,3,-1.0
270,594,w0fd8c2c,Scene,1.0,3128.0,1,1,6,choice,Before,Scene,1,2,2.0,3,3,1,1,2.0
271,595,w0fd8c2c,Yellow,,,0,1,7,choice,After,Yellow,3,-2,-2.0,3,3,1,2,-1.0
272,596,w0fd8c2c,Red,1.0,2106.0,0,1,8,choice,Before,Red,3,-1,-1.0,1,1,1,1,1.0
273,603,w117e095,Red,1.0,2052.0,1,1,1,choice,Before,Red,2,1,4.0,5,5,2,2,4.0
274,604,w117e095,Blue,1.0,1494.0,0,1,2,choice,After,Blue,3,-2,-3.0,4,4,2,2,-4.0
275,605,w117e095,Blue,0.0,2214.0,1,1,3,choice,Before,Blue,1,-2,-2.0,3,3,1,1,-2.0
276,606,w117e095,Blue,1.0,5665.0,1,1,4,choice,After,Blue,2,3,1.0,2,2,1,2,-1.0
277,607,w117e095,Animal,0.0,3321.0,1,1,5,choice,Before,Animal,2,-1,-1.0,4,4,2,3,-1.0
278,609,w117e095,Animal,1.0,823.0,0,1,7,choice,Before,Animal,2,-1,0.0,2,2,1,1,1.0
279,635,w5f68d79,Food,1.0,2856.0,1,1,1,choice,Before,Food,1,2,2.0,1,1,1,1,2.0
280,636,w5f68d79,Food,0.0,4555.0,1,1,2,choice,After,Food,2,-2,-1.0,3,3,1,1,-2.0
281,637,w5f68d79,Red,0.0,1768.0,1,1,3,choice,Before,Red,2,-3,-3.0,4,4,2,3,-3.0
282,638,w5f68d79,Red,0.0,5896.0,1,1,4,choice,After,Red,1,-1,-2.0,3,3,1,2,-2.0
283,639,w5f68d79,Scene,1.0,2056.0,1,1,7,choice,Before,Scene,1,2,2.0,1,1,1,2,2.0
284,641,we58a710,Blue,0.0,2885.0,0,1,1,choice,After,Blue,2,1,1.0,6,6,2,2,1.0
285,642,we58a710,Scene,0.0,2179.0,1,1,2,choice,Before,Scene,1,-2,-2.0,5,5,1,1,-2.0
286,643,we58a710,Object,,,0,1,3,choice,After,Object,1,-2,-2.0,6,6,1,1,-2.0
287,644,we58a710,Yellow,0.0,1000.0,1,1,4,choice,Before,Yellow,2,-2,-2.0,6,6,2,2,-2.0
288,645,we58a710,Animal,1.0,5218.0,1,1,5,choice,After,Animal,3,2,2.0,6,6,3,3,2.0
289,646,we58a710,Animal,0.0,696.0,1,1,6,choice,Before,Animal,1,-1,-1.0,6,6,1,1,-1.0
290,647,we58a710,Blue,1.0,1888.0,0,1,7,choice,After,Blue,3,-1,-1.0,6,6,3,3,-1.0
291,648,we58a710,Food,1.0,929.0,1,1,8,choice,Before,Food,1,2,2.0,6,6,1,1,2.0
292,656,w53b40c8,Scene,1.0,2705.0,1,1,2,choice,Before,Scene,2,1,0.0,4,4,2,3,0.0
293,657,w53b40c8,Object,1.0,1464.0,1,1,3,choice,After,Object,2,1,0.0,5,5,2,2,0.0
294,658,w53b40c8,Green,1.0,837.0,1,1,4,choice,Before,Green,2,1,0.0,5,5,2,2,0.0
295,659,w53b40c8,Yellow,0.0,1535.0,0,1,5,choice,After,Yellow,1,1,0.0,5,5,1,1,0.0
296,660,w53b40c8,Red,0.0,885.0,1,1,6,choice,Before,Red,2,-3,0.0,6,6,2,2,0.0
297,662,w53b40c8,Blue,0.0,950.0,1,1,8,choice,Before,Blue,1,-1,0.0,6,6,1,1,0.0
298,669,wc0a4260,Green,1.0,2734.0,0,1,1,choice,After,Green,2,-2,-2.0,3,3,1,2,-1.0
299,670,wc0a4260,Red,0.0,5238.0,1,1,2,choice,Before,Red,3,-1,-2.0,2,2,1,1,-4.0
300,672,wc0a4260,Animal,0.0,2868.0,1,1,4,choice,Before,Animal,3,-4,0.0,3,3,1,2,2.0
301,673,wc0a4260,Animal,1.0,1245.0,1,1,5,choice,After,Animal,2,1,0.0,3,3,1,1,-1.0
302,675,wc0a4260,Blue,1.0,1578.0,1,1,8,choice,Before,Blue,3,2,1.0,3,3,1,1,1.0
303,682,wf646ea3,Animal,1.0,3581.0,1,1,1,choice,Before,Animal,2,1,1.0,3,3,1,1,-1.0
304,683,wf646ea3,Green,0.0,3291.0,1,1,2,choice,After,Green,2,-1,4.0,4,4,1,1,2.0
305,685,wf646ea3,Object,0.0,885.0,1,1,4,choice,After,Object,3,-3,2.0,2,2,1,1,2.0
306,687,wf646ea3,Green,0.0,239.0,0,1,6,choice,After,Green,1,2,2.0,2,2,1,2,2.0
307,688,wf646ea3,Blue,1.0,2082.0,1,1,7,choice,Before,Blue,2,3,-2.0,2,2,1,1,-1.0
308,689,wf646ea3,Yellow,1.0,397.0,1,1,8,choice,After,Yellow,2,1,-2.0,3,3,1,1,-1.0
309,698,w6dd030e,Yellow,,,0,1,1,choice,After,Yellow,3,-1,-4.0,5,5,2,2,-3.0
310,699,w6dd030e,Object,1.0,4915.0,1,1,2,choice,Before,Object,1,1,1.0,5,5,1,1,1.0
311,700,w6dd030e,Scene,1.0,4506.0,1,1,3,choice,After,Scene,2,4,3.0,5,5,2,2,3.0
312,701,w6dd030e,Scene,,,0,1,4,choice,Before,Scene,2,2,2.0,3,3,2,2,2.0
313,702,w6dd030e,Yellow,1.0,3077.0,1,1,5,choice,After,Yellow,1,2,-1.0,5,5,1,1,-1.0
314,703,w6dd030e,Blue,1.0,4495.0,0,1,6,choice,Before,Blue,2,-4,-4.0,4,4,2,2,-4.0
315,704,w6dd030e,Animal,1.0,4860.0,1,1,7,choice,After,Animal,2,2,3.0,2,2,1,1,1.0
316,705,w6dd030e,Red,0.0,6261.0,0,1,8,choice,Before,Red,3,3,4.0,1,1,1,2,1.0
317,712,wf2f2835,Yellow,0.0,2015.0,1,1,1,choice,Before,Yellow,2,-3,-3.0,4,4,1,1,-2.0
318,713,wf2f2835,Yellow,1.0,5137.0,1,1,2,choice,After,Yellow,3,1,4.0,4,4,2,3,3.0
319,715,wf2f2835,Red,1.0,3279.0,1,1,4,choice,After,Red,3,1,2.0,5,5,3,3,2.0
320,716,wf2f2835,Animal,0.0,3228.0,1,1,5,choice,Before,Animal,1,-1,-1.0,3,3,1,1,-1.0
321,717,wf2f2835,Food,1.0,4189.0,1,1,6,choice,After,Food,3,3,5.0,2,2,1,1,1.0
322,718,wf2f2835,Scene,1.0,1585.0,1,1,7,choice,Before,Scene,3,2,2.0,4,4,2,2,1.0
323,719,wf2f2835,Red,1.0,3169.0,0,1,8,choice,After,Red,3,-2,2.0,2,2,1,1,-2.0
324,720,wd0724cf,Object,0.0,6881.0,1,1,1,choice,After,Object,2,-4,0.0,4,4,1,1,-2.0
325,721,wd0724cf,Blue,0.0,5102.0,1,1,2,choice,Before,Blue,1,-1,-1.0,5,5,1,2,-1.0
326,722,wd0724cf,Object,,,0,1,3,choice,After,Object,3,2,2.0,6,6,3,3,2.0
327,723,wd0724cf,Food,0.0,1319.0,0,1,4,choice,Before,Food,1,1,-1.0,4,4,1,1,-1.0
328,724,wd0724cf,Green,0.0,2937.0,1,1,5,choice,After,Green,3,-1,-1.0,6,6,3,3,-1.0
329,725,wd0724cf,Blue,0.0,2306.0,1,1,6,choice,Before,Blue,1,-1,-1.0,6,6,1,1,-1.0
330,726,wd0724cf,Food,1.0,2721.0,0,1,7,choice,After,Food,2,-1,-1.0,5,5,1,1,1.0
331,727,wd0724cf,Blue,1.0,2291.0,1,1,8,choice,Before,Blue,2,4,4.0,5,5,1,2,2.0
332,734,w29ed098,Scene,,,0,1,1,choice,After,Scene,2,-3,0.0,6,6,2,2,0.0
333,735,w29ed098,Scene,0.0,1712.0,1,1,2,choice,Before,Scene,1,-2,-2.0,5,5,1,1,-2.0
334,736,w29ed098,Animal,1.0,5267.0,0,1,3,choice,After,Animal,2,-3,1.0,4,4,1,1,2.0
335,737,w29ed098,Yellow,1.0,2500.0,1,1,4,choice,Before,Yellow,2,1,1.0,4,4,2,3,1.0
336,738,w29ed098,Scene,1.0,5946.0,0,1,5,choice,After,Scene,2,-1,1.0,3,3,1,1,2.0
337,739,w29ed098,Food,0.0,947.0,1,1,6,choice,Before,Food,3,-1,-2.0,5,5,3,3,-2.0
338,741,w29ed098,Yellow,0.0,545.0,1,1,8,choice,Before,Yellow,2,-1,-1.0,5,5,2,2,-1.0
339,748,w3327d2a,Yellow,0.0,4634.0,1,1,1,choice,After,Yellow,3,-2,5.0,5,5,3,3,5.0
340,749,w3327d2a,Red,0.0,906.0,1,1,2,choice,Before,Red,1,-1,-1.0,4,4,1,2,-1.0
341,750,w3327d2a,Animal,1.0,2306.0,1,1,3,choice,After,Animal,2,3,3.0,5,5,2,2,3.0
342,751,w3327d2a,Yellow,0.0,1909.0,0,1,4,choice,Before,Yellow,2,1,4.0,3,3,1,2,2.0
343,752,w3327d2a,Scene,0.0,3850.0,1,1,5,choice,After,Scene,2,-2,-2.0,4,4,2,2,-2.0
344,753,w3327d2a,Red,0.0,1315.0,1,1,6,choice,Before,Red,2,-3,-3.0,5,5,2,3,-3.0
345,754,w3327d2a,Green,0.0,5672.0,1,1,7,choice,After,Green,1,-1,-1.0,3,3,1,1,-1.0
346,755,w3327d2a,Object,0.0,2613.0,1,1,8,choice,Before,Object,3,-2,-2.0,1,1,1,1,1.0
347,762,w5685230,Animal,0.0,4689.0,1,1,1,choice,Before,Animal,2,-1,-1.0,5,5,2,2,-1.0
348,763,w5685230,Object,0.0,6447.0,1,1,2,choice,After,Object,1,-2,-2.0,6,6,1,1,-2.0
349,764,w5685230,Blue,1.0,2285.0,1,1,3,choice,Before,Blue,2,3,3.0,5,5,2,2,3.0
350,765,w5685230,Animal,1.0,6581.0,1,1,4,choice,After,Animal,2,1,-1.0,3,3,1,3,1.0
351,766,w5685230,Yellow,0.0,1073.0,1,1,5,choice,Before,Yellow,1,-1,-1.0,6,6,1,1,-1.0
352,767,w5685230,Scene,1.0,6608.0,1,1,6,choice,After,Scene,1,2,2.0,6,6,1,1,2.0
353,768,w5685230,Green,0.0,646.0,1,1,7,choice,Before,Green,3,-2,0.0,6,6,3,3,0.0
354,769,w5685230,Blue,0.0,2913.0,0,1,8,choice,After,Blue,1,1,1.0,4,4,1,1,1.0
355,776,w30e05e4,Blue,0.0,5481.0,0,1,1,choice,After,Blue,3,2,-1.0,5,5,3,3,-1.0
356,777,w30e05e4,Scene,1.0,4217.0,0,1,2,choice,Before,Scene,2,-1,0.0,5,5,2,2,0.0
357,778,w30e05e4,Food,,,0,1,3,choice,After,Food,1,-2,2.0,6,6,1,1,2.0
358,779,w30e05e4,Green,1.0,896.0,1,1,4,choice,Before,Green,2,4,4.0,5,5,2,2,4.0
359,780,w30e05e4,Yellow,1.0,3889.0,1,1,5,choice,After,Yellow,1,1,2.0,4,4,1,2,2.0
360,781,w30e05e4,Red,1.0,1945.0,1,1,6,choice,Before,Red,2,4,4.0,6,6,2,2,4.0
361,782,w30e05e4,Scene,1.0,5438.0,0,1,7,choice,After,Scene,3,-1,-1.0,5,5,2,2,0.0
362,783,w30e05e4,Yellow,1.0,712.0,1,1,8,choice,Before,Yellow,2,1,1.0,4,4,2,2,1.0
363,791,wbe9243a,Blue,,,0,1,1,choice,After,Blue,3,2,-2.0,2,2,1,1,-2.0
364,792,wbe9243a,Object,1.0,2975.0,1,1,2,choice,Before,Object,2,1,1.0,5,5,2,3,1.0
365,793,wbe9243a,Green,1.0,3124.0,1,1,3,choice,After,Green,1,2,-2.0,3,3,1,2,-2.0
366,794,wbe9243a,Animal,1.0,872.0,1,1,4,choice,Before,Animal,3,2,0.0,4,4,2,2,-2.0
367,795,wbe9243a,Green,0.0,2813.0,1,1,5,choice,After,Green,3,-1,-5.0,3,3,1,1,-2.0
368,796,wbe9243a,Food,1.0,1930.0,0,1,6,choice,Before,Food,3,-1,-4.0,5,5,3,3,-4.0
369,797,wbe9243a,Animal,,,0,1,7,choice,After,Animal,1,1,1.0,6,6,1,1,1.0
370,798,wbe9243a,Object,0.0,4446.0,0,1,8,choice,Before,Object,3,1,1.0,6,6,3,3,1.0
371,805,w0b0ec85,Object,0.0,6317.0,0,1,1,choice,After,Object,2,1,1.0,4,4,2,2,1.0
372,806,w0b0ec85,Green,1.0,1932.0,1,1,2,choice,Before,Green,2,4,3.0,4,4,1,1,1.0
373,807,w0b0ec85,Yellow,0.0,2246.0,1,1,4,choice,Before,Yellow,2,-2,-3.0,2,2,2,2,-3.0
374,809,w0b0ec85,Scene,1.0,2533.0,1,1,7,choice,After,Scene,3,2,1.0,1,1,1,1,2.0
375,810,w0ef0b67,Animal,1.0,1626.0,0,1,1,choice,After,Animal,2,-1,-2.0,5,5,2,2,-2.0
376,811,w0ef0b67,Scene,0.0,3062.0,0,1,2,choice,Before,Scene,2,1,-2.0,3,3,2,2,-2.0
377,812,w0ef0b67,Yellow,1.0,1797.0,0,1,3,choice,After,Yellow,3,-2,-3.0,4,4,3,3,-3.0
378,813,w0ef0b67,Blue,1.0,2100.0,1,1,4,choice,Before,Blue,1,2,2.0,2,2,1,1,2.0
379,814,w0ef0b67,Scene,0.0,5048.0,1,1,5,choice,After,Scene,2,-1,-2.0,1,1,1,1,-1.0
380,822,wea8ef8e,Animal,1.0,2458.0,1,1,1,choice,Before,Animal,2,2,0.0,2,2,1,1,1.0
381,823,wea8ef8e,Food,1.0,4405.0,1,1,2,choice,After,Food,2,1,-2.0,3,3,1,1,-1.0
382,824,wea8ef8e,Food,0.0,2413.0,0,1,3,choice,Before,Food,3,1,1.0,2,2,1,2,1.0
383,825,wea8ef8e,Object,1.0,4193.0,0,1,4,choice,After,Object,1,-2,-2.0,3,3,1,1,-2.0
384,826,wea8ef8e,Yellow,0.0,3015.0,1,1,5,choice,Before,Yellow,1,-2,-2.0,4,4,1,2,-2.0
385,828,wea8ef8e,Green,1.0,3056.0,0,1,7,choice,Before,Green,3,-2,-3.0,3,3,1,1,-1.0
386,829,wea8ef8e,Red,1.0,7147.0,0,1,8,choice,After,Red,3,-3,-4.0,5,5,3,3,-4.0
387,841,we38f335,Animal,0.0,3643.0,0,1,1,choice,Before,Animal,2,3,-1.0,4,4,1,1,1.0
388,842,we38f335,Scene,1.0,1966.0,1,1,2,choice,After,Scene,2,1,-3.0,4,4,1,2,-2.0
389,843,we38f335,Yellow,1.0,3191.0,1,1,3,choice,Before,Yellow,3,2,2.0,6,6,3,3,2.0
390,844,we38f335,Blue,,,0,1,4,choice,After,Blue,1,1,-1.0,4,4,1,3,-1.0
391,845,we38f335,Object,1.0,4025.0,0,1,5,choice,Before,Object,3,-1,-1.0,6,6,3,3,-1.0
392,846,we38f335,Food,1.0,1198.0,0,1,6,choice,After,Food,3,-2,-2.0,6,6,3,3,-2.0
393,847,we38f335,Object,1.0,1653.0,1,1,7,choice,Before,Object,2,1,-1.0,5,5,2,2,-1.0
394,848,we38f335,Blue,0.0,2386.0,1,1,8,choice,After,Blue,1,-1,-2.0,6,6,1,1,-2.0
395,855,wc6f0e84,Animal,0.0,2714.0,1,1,1,choice,Before,Animal,3,-1,-1.0,5,5,2,2,0.0
396,856,wc6f0e84,Blue,1.0,2030.0,0,1,2,choice,After,Blue,2,-1,-1.0,4,4,2,2,-1.0
397,857,wc6f0e84,Scene,0.0,1615.0,1,1,3,choice,Before,Scene,3,-3,-3.0,5,5,2,2,-4.0
398,858,wc6f0e84,Red,0.0,3438.0,1,1,4,choice,After,Red,3,-1,-2.0,3,3,2,2,0.0
399,859,wc6f0e84,Object,0.0,1515.0,1,1,5,choice,Before,Object,1,-2,-2.0,3,3,1,2,-2.0
400,861,wc6f0e84,Scene,0.0,3695.0,1,1,7,choice,Before,Scene,2,-1,-1.0,5,5,2,2,-1.0
401,862,wc6f0e84,Yellow,1.0,3867.0,1,1,8,choice,After,Yellow,2,4,4.0,4,4,2,2,4.0
402,869,wab226bf,Animal,0.0,6616.0,0,1,1,choice,After,Animal,3,3,-1.0,2,2,1,2,2.0
403,870,wab226bf,Green,0.0,5402.0,0,1,2,choice,Before,Green,3,2,2.0,2,2,1,2,-2.0
404,872,wab226bf,Animal,,,0,1,4,choice,Before,Animal,1,-1,-1.0,4,4,1,1,-1.0
405,873,wab226bf,Red,0.0,2952.0,0,1,5,choice,After,Red,2,1,-2.0,3,3,2,3,-2.0
406,874,wab226bf,Red,0.0,1757.0,1,1,6,choice,Before,Red,2,-3,-3.0,6,6,2,2,-3.0
407,876,wab226bf,Animal,0.0,848.0,1,1,8,choice,Before,Animal,2,-1,-1.0,4,4,2,3,-1.0
408,883,w2a7296e,Food,1.0,3129.0,1,1,1,choice,After,Food,1,2,2.0,4,4,1,1,2.0
409,884,w2a7296e,Yellow,0.0,1935.0,0,1,3,choice,After,Yellow,2,2,1.0,1,1,1,1,2.0
410,886,w2a7296e,Green,1.0,2588.0,1,1,5,choice,After,Green,3,4,1.0,2,2,2,2,0.0
411,887,w2a7296e,Yellow,0.0,2361.0,0,1,6,choice,Before,Yellow,1,1,2.0,4,4,1,2,2.0
412,888,w2a7296e,Green,1.0,2575.0,1,1,7,choice,After,Green,1,1,1.0,4,4,1,2,1.0
413,896,w1629b0b,Food,0.0,2978.0,0,1,1,choice,After,Food,1,2,0.0,5,5,1,1,0.0
414,897,w1629b0b,Red,0.0,1967.0,1,1,2,choice,Before,Red,1,-1,0.0,4,4,1,1,0.0
415,898,w1629b0b,Food,1.0,7325.0,1,1,3,choice,After,Food,1,2,0.0,3,3,1,1,0.0
416,899,w1629b0b,Object,0.0,1586.0,1,1,4,choice,Before,Object,3,-1,0.0,4,4,2,2,0.0
417,900,w1629b0b,Red,1.0,3360.0,1,1,5,choice,After,Red,2,3,0.0,3,3,1,2,0.0
418,901,w1629b0b,Scene,1.0,1218.0,1,1,6,choice,Before,Scene,1,2,0.0,2,2,1,2,0.0
419,902,w1629b0b,Blue,0.0,3461.0,1,1,7,choice,After,Blue,2,-2,0.0,4,4,1,1,0.0
420,911,w580c449,Food,0.0,6104.0,1,1,2,choice,Before,Food,1,-2,1.0,5,5,1,1,1.0
421,912,w580c449,Red,1.0,1124.0,0,1,3,choice,After,Red,2,-1,-3.0,3,3,2,2,-3.0
422,914,w580c449,Yellow,1.0,2630.0,0,1,5,choice,After,Yellow,2,-1,1.0,2,2,1,1,2.0
423,915,w580c449,Food,1.0,3284.0,0,1,6,choice,Before,Food,3,-1,3.0,4,4,2,2,1.0
424,924,w768a02c,Green,0.0,2141.0,1,1,1,choice,Before,Green,2,-4,-4.0,4,4,2,2,-4.0
425,925,w768a02c,Object,,,0,1,2,choice,After,Object,2,-4,1.0,4,4,1,1,2.0
426,926,w768a02c,Yellow,1.0,1283.0,1,1,3,choice,Before,Yellow,3,5,5.0,5,5,3,3,5.0
427,927,w768a02c,Yellow,1.0,3113.0,1,1,4,choice,After,Yellow,3,1,1.0,4,4,2,3,0.0
428,928,w768a02c,Yellow,1.0,1154.0,1,1,5,choice,Before,Yellow,2,1,1.0,4,4,1,2,2.0
429,929,w768a02c,Scene,0.0,2070.0,0,1,6,choice,After,Scene,2,4,1.0,3,3,1,1,4.0
430,930,w768a02c,Object,1.0,2403.0,1,1,7,choice,Before,Object,2,1,1.0,5,5,2,2,1.0
431,931,w768a02c,Green,0.0,2999.0,1,1,8,choice,After,Green,2,-1,-1.0,3,3,2,2,-1.0
432,938,w308aa07,Yellow,,,0,1,1,choice,Before,Yellow,3,3,2.0,1,1,1,1,2.0
433,939,w308aa07,Scene,1.0,3840.0,0,1,2,choice,After,Scene,1,-1,1.0,5,5,1,1,1.0
434,940,w308aa07,Object,1.0,1000.0,1,1,3,choice,Before,Object,1,1,2.0,4,4,1,1,2.0
435,941,w308aa07,Blue,,,0,1,5,choice,Before,Blue,1,-2,-2.0,6,6,1,1,-2.0
436,942,w308aa07,Red,0.0,4199.0,1,1,6,choice,After,Red,2,-3,0.0,5,5,1,1,-1.0
437,943,w308aa07,Food,0.0,3551.0,1,1,7,choice,Before,Food,1,-2,-2.0,6,6,1,1,-2.0
438,944,w308aa07,Object,0.0,5619.0,1,1,8,choice,After,Object,3,-3,-3.0,5,5,2,2,-1.0
439,951,w365c8db,Red,1.0,3082.0,1,1,1,choice,After,Red,2,1,-1.0,2,2,1,3,1.0
440,953,w365c8db,Food,1.0,4957.0,0,1,3,choice,After,Food,3,-5,1.0,5,5,3,3,1.0
441,954,w365c8db,Yellow,0.0,1517.0,1,1,4,choice,Before,Yellow,3,-1,-1.0,4,4,2,3,1.0
442,956,w365c8db,Food,0.0,2078.0,1,1,6,choice,Before,Food,2,-2,3.0,3,3,2,2,3.0
443,957,w365c8db,Green,0.0,2117.0,1,1,7,choice,After,Green,3,-5,-5.0,4,4,2,2,-3.0
444,958,w365c8db,Animal,0.0,4849.0,1,1,8,choice,Before,Animal,2,-1,-1.0,5,5,2,2,-1.0
445,965,w737e6e4,Red,0.0,2499.0,1,1,1,choice,After,Red,1,-1,-1.0,4,4,1,2,-1.0
446,966,w737e6e4,Green,1.0,1500.0,1,1,2,choice,Before,Green,2,3,3.0,5,5,2,2,3.0
447,967,w737e6e4,Food,1.0,6676.0,1,1,3,choice,After,Food,1,1,1.0,5,5,1,1,1.0
448,968,w737e6e4,Green,0.0,1374.0,1,1,4,choice,Before,Green,2,-3,-3.0,4,4,2,2,-3.0
449,969,w737e6e4,Object,0.0,6402.0,1,1,5,choice,After,Object,3,-3,0.0,3,3,1,2,-2.0
450,970,w737e6e4,Green,1.0,841.0,1,1,6,choice,Before,Green,1,1,1.0,5,5,1,1,1.0
451,971,w737e6e4,Scene,1.0,2161.0,1,1,7,choice,After,Scene,3,3,2.0,2,2,2,2,3.0
452,979,wc097323,Animal,,,0,1,1,choice,After,Animal,2,3,3.0,3,3,1,1,2.0
453,980,wc097323,Object,1.0,4376.0,0,1,2,choice,Before,Object,2,-2,-3.0,5,5,1,1,-2.0
454,981,wc097323,Food,0.0,2385.0,1,1,3,choice,After,Food,3,-1,1.0,6,6,3,3,1.0
455,982,wc097323,Object,0.0,743.0,1,1,4,choice,Before,Object,1,-2,-2.0,6,6,1,1,-2.0
456,983,wc097323,Yellow,0.0,5716.0,1,1,5,choice,After,Yellow,2,-1,-2.0,6,6,2,2,-2.0
457,984,wc097323,Red,1.0,544.0,1,1,6,choice,Before,Red,2,3,3.0,6,6,2,2,3.0
458,985,wc097323,Red,0.0,2844.0,1,1,7,choice,After,Red,3,-3,-4.0,6,6,3,3,-4.0
459,986,wc097323,Blue,1.0,1105.0,1,1,8,choice,Before,Blue,3,4,5.0,6,6,3,3,5.0
460,993,w35dbe71,Object,1.0,5844.0,1,1,1,choice,Before,Object,2,4,4.0,6,6,2,2,4.0
461,994,w35dbe71,Scene,1.0,3962.0,0,1,2,choice,After,Scene,3,-1,1.0,6,6,3,3,1.0
462,995,w35dbe71,Scene,,,0,1,3,choice,Before,Scene,1,-2,-2.0,6,6,1,1,-2.0
463,996,w35dbe71,Object,,,0,1,4,choice,After,Object,3,1,0.0,4,4,2,2,-1.0
464,997,w35dbe71,Blue,0.0,2129.0,1,1,5,choice,Before,Blue,2,-1,-1.0,5,5,2,2,-1.0
465,998,w35dbe71,Yellow,,,0,1,6,choice,After,Yellow,2,-2,-2.0,6,6,2,2,-2.0
466,999,w35dbe71,Red,1.0,3639.0,1,1,7,choice,Before,Red,1,2,2.0,6,6,1,1,2.0
467,1000,w35dbe71,Animal,1.0,5433.0,1,1,8,choice,After,Animal,3,1,1.0,5,5,3,3,1.0
468,1007,w7f90916,Object,1.0,2970.0,0,1,1,choice,Before,Object,3,-3,2.0,5,5,3,3,2.0
469,1008,w7f90916,Green,1.0,5813.0,1,1,2,choice,After,Green,1,2,2.0,6,6,1,1,2.0
470,1009,w7f90916,Animal,,,0,1,3,choice,Before,Animal,1,-1,-1.0,6,6,1,1,-1.0
471,1010,w7f90916,Red,1.0,2371.0,1,1,4,choice,After,Red,1,2,2.0,5,5,1,1,2.0
472,1011,w7f90916,Object,0.0,1348.0,1,1,5,choice,Before,Object,3,-2,2.0,4,4,1,1,2.0
473,1012,w7f90916,Scene,1.0,2920.0,0,1,6,choice,After,Scene,3,-2,-1.0,5,5,3,3,-1.0
474,1013,w7f90916,Scene,0.0,1876.0,1,1,7,choice,Before,Scene,1,-1,-1.0,4,4,1,1,-1.0
475,1021,w9051394,Scene,1.0,3494.0,0,1,1,choice,After,Scene,2,-3,0.0,4,4,2,3,0.0
476,1022,w9051394,Blue,1.0,1671.0,1,1,2,choice,Before,Blue,2,2,2.0,5,5,2,2,2.0
477,1023,w9051394,Object,0.0,6401.0,0,1,3,choice,After,Object,1,1,1.0,6,6,1,1,1.0
478,1024,w9051394,Yellow,1.0,5369.0,1,1,4,choice,Before,Yellow,2,1,1.0,6,6,2,2,1.0
479,1025,w9051394,Object,1.0,1913.0,0,1,5,choice,After,Object,1,-1,-1.0,6,6,1,1,-1.0
480,1026,w9051394,Yellow,1.0,1464.0,1,1,6,choice,Before,Yellow,1,2,2.0,6,6,1,1,2.0
481,1027,w9051394,Green,0.0,4032.0,1,1,7,choice,After,Green,1,-2,-2.0,6,6,1,1,-2.0
482,1028,w9051394,Yellow,1.0,1580.0,1,1,8,choice,Before,Yellow,2,2,2.0,6,6,2,2,2.0
483,1036,w5ab5786,Food,0.0,1764.0,1,1,2,choice,After,Food,1,-2,2.0,4,4,1,2,2.0
484,1037,w5ab5786,Animal,1.0,1525.0,1,1,3,choice,Before,Animal,2,4,1.0,2,2,1,1,2.0
485,1038,w5ab5786,Animal,1.0,1837.0,1,1,4,choice,After,Animal,3,1,4.0,1,1,1,1,1.0
486,1040,w5ab5786,Red,0.0,2176.0,1,1,7,choice,Before,Red,3,-1,-5.0,3,3,1,1,-2.0
487,1041,w44f5ace,Red,1.0,2399.0,1,1,1,choice,Before,Red,1,2,1.0,3,3,1,2,2.0
488,1042,w44f5ace,Yellow,0.0,1487.0,0,1,2,choice,After,Yellow,3,5,2.0,4,4,3,3,2.0
489,1043,w44f5ace,Animal,1.0,5034.0,0,1,4,choice,After,Animal,2,-1,-1.0,2,2,1,1,1.0
490,1044,w44f5ace,Scene,1.0,1936.0,1,1,5,choice,Before,Scene,3,6,-2.0,2,2,2,2,-4.0
491,1045,w44f5ace,Animal,1.0,6249.0,1,1,6,choice,After,Animal,2,2,-2.0,3,3,1,1,-1.0
492,1046,w44f5ace,Scene,1.0,2048.0,0,1,7,choice,Before,Scene,3,-1,-2.0,3,3,3,3,-2.0
493,1047,w44f5ace,Red,1.0,75.0,0,1,8,choice,After,Red,3,-3,2.0,2,2,1,2,2.0
494,1054,we1b8e64,Red,1.0,3327.0,1,1,1,choice,After,Red,2,3,4.0,3,3,2,3,4.0
495,1055,we1b8e64,Food,0.0,2170.0,1,1,2,choice,Before,Food,2,-1,-1.0,6,6,2,2,-1.0
496,1056,we1b8e64,Red,,,0,1,3,choice,After,Red,2,-1,2.0,4,4,1,1,1.0
497,1057,we1b8e64,Object,1.0,1140.0,1,1,4,choice,Before,Object,1,2,2.0,5,5,1,1,2.0
498,1058,we1b8e64,Object,1.0,3454.0,1,1,5,choice,After,Object,3,2,2.0,4,4,3,3,2.0
499,1059,we1b8e64,Scene,1.0,2486.0,1,1,6,choice,Before,Scene,3,1,1.0,4,4,3,3,1.0
500,1060,we1b8e64,Animal,0.0,2312.0,1,1,7,choice,After,Animal,2,-1,-1.0,5,5,2,2,-1.0
501,1061,we1b8e64,Yellow,1.0,834.0,1,1,8,choice,Before,Yellow,2,3,3.0,3,3,2,2,3.0
502,1068,w44c6cc9,Scene,0.0,6574.0,1,1,1,choice,Before,Scene,2,-2,-2.0,5,5,2,2,-2.0
503,1069,w44c6cc9,Blue,,,0,1,2,choice,After,Blue,2,3,-1.0,5,5,2,2,-1.0
504,1071,w44c6cc9,Yellow,,,0,1,4,choice,After,Yellow,2,-1,-1.0,5,5,1,2,1.0
505,1072,w44c6cc9,Scene,0.0,1173.0,1,1,5,choice,Before,Scene,2,-1,-1.0,6,6,2,2,-1.0
506,1073,w44c6cc9,Yellow,0.0,4113.0,1,1,6,choice,After,Yellow,1,-2,-2.0,6,6,1,1,-2.0
507,1074,w44c6cc9,Blue,1.0,800.0,1,1,7,choice,Before,Blue,3,2,2.0,5,5,3,3,2.0
508,1075,w44c6cc9,Food,1.0,4691.0,1,1,8,choice,After,Food,1,1,1.0,4,4,1,1,1.0
509,1082,w60e6ea8,Food,0.0,1304.0,1,1,1,choice,Before,Food,1,-1,-1.0,4,4,1,2,-1.0
510,1083,w60e6ea8,Object,1.0,6256.0,1,1,2,choice,After,Object,2,4,3.0,3,3,1,1,1.0
511,1084,w60e6ea8,Blue,1.0,1055.0,1,1,3,choice,Before,Blue,1,1,1.0,3,3,1,1,1.0
512,1086,w60e6ea8,Scene,1.0,1108.0,1,1,5,choice,Before,Scene,2,3,3.0,5,5,2,2,3.0
513,1087,w60e6ea8,Red,0.0,2834.0,1,1,6,choice,After,Red,2,-1,-3.0,4,4,1,1,-1.0
514,1088,w60e6ea8,Food,1.0,2575.0,0,1,7,choice,Before,Food,1,-2,-2.0,3,3,1,2,-2.0
515,1096,wbe569b5,Blue,1.0,1049.0,1,1,1,choice,Before,Blue,3,1,1.0,3,3,2,2,-1.0
516,1097,wbe569b5,Scene,0.0,7117.0,0,1,2,choice,After,Scene,3,2,-3.0,6,6,3,3,-3.0
517,1098,wbe569b5,Red,0.0,676.0,1,1,3,choice,Before,Red,2,-3,-3.0,6,6,2,2,-3.0
518,1099,wbe569b5,Yellow,1.0,1809.0,0,1,4,choice,After,Yellow,3,-1,0.0,4,4,2,3,-1.0
519,1100,wbe569b5,Scene,0.0,1725.0,1,1,5,choice,Before,Scene,1,-2,-1.0,5,5,1,1,-1.0
520,1101,wbe569b5,Red,0.0,2040.0,1,1,6,choice,After,Red,2,-3,-1.0,4,4,2,2,-1.0
521,1102,wbe569b5,Red,0.0,1151.0,1,1,7,choice,Before,Red,3,-2,-2.0,5,5,2,3,0.0
522,1103,wbe569b5,Food,0.0,4697.0,0,1,8,choice,After,Food,1,2,-1.0,3,3,1,3,-1.0
523,1110,wafacea9,Green,1.0,5205.0,0,1,1,choice,After,Green,2,-4,-2.0,2,2,1,1,-1.0
524,1111,wafacea9,Scene,1.0,5612.0,1,1,2,choice,Before,Scene,3,2,-1.0,3,3,2,2,0.0
525,1112,wdfdc927,Object,1.0,4096.0,0,1,1,choice,After,Object,3,-1,3.0,4,4,2,2,1.0
526,1113,wdfdc927,Green,1.0,5396.0,1,1,2,choice,Before,Green,1,2,-2.0,6,6,1,1,-2.0
527,1114,wdfdc927,Green,1.0,7240.0,1,1,3,choice,After,Green,3,1,1.0,4,4,2,2,2.0
528,1115,wdfdc927,Red,1.0,1737.0,1,1,4,choice,Before,Red,1,1,1.0,6,6,1,1,1.0
529,1116,wdfdc927,Yellow,1.0,3762.0,1,1,5,choice,After,Yellow,1,1,-1.0,6,6,1,1,-1.0
530,1117,wdfdc927,Red,0.0,6001.0,0,1,6,choice,Before,Red,3,1,-1.0,6,6,3,3,-1.0
531,1119,wdfdc927,Scene,1.0,540.0,1,1,8,choice,Before,Scene,1,1,1.0,6,6,1,1,1.0
532,1127,w2991322,Green,0.0,4659.0,1,1,2,choice,Before,Green,2,-1,-1.0,2,2,1,1,-2.0
533,1129,w2991322,Food,0.0,3130.0,1,1,4,choice,Before,Food,1,-2,-2.0,4,4,1,1,-2.0
534,1130,w2991322,Scene,0.0,3748.0,1,1,5,choice,After,Scene,3,-1,-1.0,5,5,2,2,1.0
535,1131,w2991322,Food,1.0,3349.0,1,1,6,choice,Before,Food,3,5,-2.0,2,2,1,1,-2.0
536,1132,w2991322,Object,1.0,2717.0,0,1,7,choice,After,Object,1,-2,1.0,5,5,1,1,1.0
537,1133,w2991322,Red,1.0,3498.0,1,1,8,choice,Before,Red,3,1,3.0,2,2,1,2,-1.0
538,1140,wa79cf20,Green,1.0,3816.0,1,1,1,choice,After,Green,2,3,-3.0,5,5,1,2,-2.0
539,1141,wa79cf20,Green,0.0,1518.0,1,1,2,choice,Before,Green,2,-1,-1.0,5,5,2,2,-1.0
540,1142,wa79cf20,Scene,0.0,6716.0,0,1,3,choice,After,Scene,1,1,-1.0,5,5,1,2,-1.0
541,1143,wa79cf20,Blue,1.0,596.0,1,1,4,choice,Before,Blue,3,3,3.0,5,5,3,3,3.0
542,1144,wa79cf20,Green,1.0,1640.0,1,1,5,choice,After,Green,3,6,6.0,4,4,3,3,6.0
543,1145,wa79cf20,Animal,1.0,1419.0,0,1,6,choice,Before,Animal,2,-1,1.0,3,3,1,1,-1.0
544,1147,wa79cf20,Object,1.0,2695.0,1,1,8,choice,Before,Object,2,1,1.0,5,5,1,1,2.0
545,1155,wb56c2d3,Food,0.0,1239.0,1,1,2,choice,Before,Food,3,-3,-3.0,5,5,3,3,-3.0
546,1156,wb56c2d3,Blue,0.0,1014.0,1,1,3,choice,After,Blue,2,-4,-4.0,4,4,1,2,-2.0
547,1157,wb56c2d3,Scene,1.0,1249.0,1,1,4,choice,Before,Scene,1,2,2.0,3,3,1,1,2.0
548,1158,wb56c2d3,Green,1.0,2084.0,1,1,5,choice,After,Green,3,1,2.0,5,5,3,3,2.0
549,1159,wb56c2d3,Animal,1.0,1154.0,1,1,6,choice,Before,Animal,2,4,4.0,3,3,1,2,2.0
550,1161,wb56c2d3,Object,0.0,1002.0,1,1,8,choice,Before,Object,1,-2,-2.0,3,3,1,1,-2.0
551,1168,w2bc0b21,Scene,1.0,2544.0,0,1,1,choice,After,Scene,1,-1,1.0,4,4,1,2,1.0
552,1169,w2bc0b21,Yellow,0.0,3336.0,0,1,2,choice,Before,Yellow,3,1,-3.0,5,5,2,2,-4.0
553,1170,w2bc0b21,Green,1.0,3047.0,1,1,3,choice,After,Green,2,3,3.0,1,1,1,1,1.0
554,1171,w2bc0b21,Animal,0.0,2832.0,0,1,4,choice,Before,Animal,2,1,1.0,4,4,1,1,2.0
555,1172,w2bc0b21,Scene,0.0,1999.0,1,1,5,choice,After,Scene,3,-3,-3.0,4,4,2,2,-4.0
556,1173,w2bc0b21,Blue,1.0,4658.0,1,1,6,choice,Before,Blue,1,1,1.0,3,3,1,1,1.0
557,1174,w2bc0b21,Food,1.0,1920.0,1,1,7,choice,After,Food,2,3,4.0,4,4,1,1,2.0
558,1175,w2bc0b21,Food,0.0,1860.0,1,1,8,choice,Before,Food,1,-1,-1.0,2,2,1,2,-1.0
559,1182,w5f010fa,Blue,1.0,6913.0,1,1,1,choice,Before,Blue,3,2,0.0,4,4,3,3,0.0
560,1183,w5f010fa,Red,1.0,4884.0,1,1,2,choice,After,Red,3,2,0.0,6,6,2,2,0.0
561,1184,w5f010fa,Red,1.0,2314.0,1,1,3,choice,Before,Red,2,1,0.0,5,5,2,3,0.0
562,1185,w5f010fa,Blue,1.0,1936.0,0,1,4,choice,After,Blue,2,-3,-2.0,6,6,2,2,-2.0
563,1186,w5f010fa,Food,1.0,2538.0,0,1,5,choice,Before,Food,3,-1,-1.0,6,6,3,3,-1.0
564,1187,w5f010fa,Green,0.0,2820.0,0,1,6,choice,After,Green,3,1,1.0,6,6,3,3,0.0
565,1188,w5f010fa,Object,,,0,1,7,choice,Before,Object,2,3,3.0,5,5,2,2,3.0
566,1189,w5f010fa,Food,0.0,3033.0,0,1,8,choice,After,Food,1,1,1.0,6,6,1,1,1.0
567,1196,w962c662,Green,1.0,6464.0,1,1,1,choice,Before,Green,1,1,1.0,5,5,1,1,1.0
568,1197,w962c662,Red,0.0,1686.0,1,1,2,choice,After,Red,1,-2,-2.0,3,3,1,1,-2.0
569,1198,w962c662,Blue,0.0,1032.0,1,1,3,choice,Before,Blue,1,-2,1.0,4,4,1,1,1.0
570,1199,w962c662,Animal,1.0,817.0,1,1,5,choice,Before,Animal,3,1,1.0,5,5,2,2,3.0
571,1200,w962c662,Yellow,1.0,2028.0,1,1,6,choice,After,Yellow,1,1,2.0,5,5,1,1,2.0
572,1201,w962c662,Yellow,0.0,1088.0,0,1,7,choice,Before,Yellow,2,1,1.0,1,1,1,1,-1.0
573,1202,w962c662,Object,1.0,1896.0,0,1,8,choice,After,Object,3,-2,1.0,2,2,2,2,-1.0
574,1209,w1571d58,Scene,,,0,1,1,choice,Before,Scene,3,-3,1.0,3,3,1,1,-1.0
575,1210,w1571d58,Yellow,1.0,3717.0,0,1,2,choice,After,Yellow,3,-1,-2.0,3,3,2,2,-4.0
576,1213,w1571d58,Red,1.0,5047.0,1,1,5,choice,Before,Red,2,2,2.0,6,6,2,2,2.0
577,1214,w1571d58,Food,1.0,1995.0,0,1,6,choice,After,Food,3,-1,0.0,6,6,3,3,0.0
578,1215,w1571d58,Object,1.0,3488.0,0,1,7,choice,Before,Object,2,-3,-3.0,6,6,2,2,-3.0
579,1216,w1571d58,Blue,0.0,4093.0,1,1,8,choice,After,Blue,1,-2,-2.0,6,6,1,1,-2.0
580,1223,w36b3d2f,Scene,1.0,6761.0,1,1,1,choice,Before,Scene,1,1,1.0,6,6,1,1,1.0
581,1224,w36b3d2f,Animal,1.0,6650.0,1,1,2,choice,After,Animal,1,2,2.0,6,6,1,1,2.0
582,1225,w36b3d2f,Green,1.0,2205.0,1,1,3,choice,Before,Green,2,1,1.0,6,6,2,2,1.0
583,1226,w36b3d2f,Blue,1.0,6764.0,1,1,4,choice,After,Blue,3,2,2.0,6,6,3,3,2.0
584,1227,w36b3d2f,Blue,,,0,1,5,choice,Before,Blue,2,-2,1.0,4,4,1,2,-1.0
585,1228,w36b3d2f,Food,0.0,6483.0,1,1,6,choice,After,Food,3,-2,-2.0,6,6,3,3,-2.0
586,1229,w36b3d2f,Green,1.0,1938.0,1,1,7,choice,Before,Green,2,1,1.0,6,6,2,2,1.0
587,1230,w36b3d2f,Food,0.0,5611.0,1,1,8,choice,After,Food,1,-1,-1.0,5,5,1,2,-1.0
588,1238,w3d5caa9,Green,1.0,2553.0,1,1,2,choice,Before,Green,3,3,-1.0,3,3,1,2,-2.0
589,1239,w3d5caa9,Scene,,,0,1,3,choice,After,Scene,3,-4,-4.0,6,6,3,3,-4.0
590,1240,w3d5caa9,Red,1.0,7472.0,1,1,4,choice,Before,Red,3,1,1.0,6,6,3,3,1.0
591,1241,w3d5caa9,Red,0.0,1927.0,1,1,5,choice,After,Red,2,-3,2.0,3,3,1,2,0.0
592,1242,w3d5caa9,Food,0.0,2778.0,1,1,6,choice,Before,Food,3,-1,-1.0,4,4,3,3,-1.0
593,1243,w3d5caa9,Object,1.0,5456.0,0,1,7,choice,After,Object,3,-2,-2.0,6,6,3,3,-2.0
594,1244,w3d5caa9,Food,1.0,2172.0,1,1,8,choice,Before,Food,1,2,2.0,4,4,1,1,2.0
595,1251,wa6daa50,Yellow,,,0,1,1,choice,After,Yellow,3,-1,1.0,6,6,3,3,1.0
596,1252,wa6daa50,Yellow,1.0,662.0,1,1,2,choice,Before,Yellow,2,3,2.0,3,3,1,1,0.0
597,1253,wa6daa50,Green,0.0,1984.0,0,1,3,choice,After,Green,3,2,1.0,5,5,3,3,1.0
598,1254,wa6daa50,Scene,1.0,1631.0,0,1,4,choice,Before,Scene,2,-1,-1.0,4,4,2,2,-1.0
599,1255,wa6daa50,Food,1.0,2029.0,1,1,5,choice,After,Food,1,2,2.0,3,3,1,2,2.0
600,1256,wa6daa50,Food,1.0,1231.0,1,1,6,choice,Before,Food,2,2,2.0,3,3,1,2,1.0
601,1257,wa6daa50,Scene,0.0,3251.0,1,1,7,choice,After,Scene,1,-1,2.0,2,2,1,2,2.0
602,1258,wa6daa50,Food,1.0,1030.0,1,1,8,choice,Before,Food,3,2,1.0,2,2,2,2,2.0
603,1265,w51664f0,Red,0.0,4097.0,1,1,1,choice,Before,Red,1,-1,-1.0,3,3,1,1,-1.0
604,1266,w51664f0,Green,0.0,3587.0,1,1,2,choice,After,Green,2,-2,-2.0,4,4,1,1,-1.0
605,1267,w51664f0,Object,0.0,3572.0,1,1,3,choice,Before,Object,3,-2,-2.0,2,2,1,1,-2.0
606,1268,w51664f0,Object,0.0,3383.0,1,1,4,choice,After,Object,3,-3,-2.0,1,1,1,1,-2.0
607,1282,w2cb5760,Scene,0.0,7084.0,1,1,1,choice,Before,Scene,1,-2,1.0,1,1,1,1,1.0
608,1284,w0b3246f,Blue,0.0,4211.0,0,1,2,choice,Before,Blue,2,1,1.0,4,4,1,1,2.0
609,1285,w0b3246f,Yellow,1.0,4025.0,0,1,3,choice,After,Yellow,3,-2,0.0,6,6,3,3,0.0
610,1286,w0b3246f,Object,,,0,1,4,choice,Before,Object,1,1,1.0,6,6,1,1,1.0
611,1287,w0b3246f,Animal,0.0,3086.0,0,1,5,choice,After,Animal,2,4,4.0,6,6,2,2,4.0
612,1289,w0b3246f,Yellow,1.0,2838.0,1,1,7,choice,After,Yellow,2,1,4.0,5,5,2,2,4.0
613,1297,w0d04a41,Object,1.0,3389.0,0,1,1,choice,Before,Object,3,-1,3.0,3,3,1,1,-1.0
614,1298,w0d04a41,Scene,1.0,2586.0,1,1,2,choice,After,Scene,3,2,2.0,5,5,2,2,1.0
615,1299,w0d04a41,Green,1.0,1470.0,1,1,3,choice,Before,Green,1,2,2.0,6,6,1,1,2.0
616,1301,w0d04a41,Yellow,0.0,6868.0,0,1,5,choice,Before,Yellow,2,1,-2.0,6,6,2,2,-2.0
617,1302,w0d04a41,Object,1.0,6847.0,0,1,6,choice,After,Object,1,-2,-2.0,6,6,1,1,-2.0
618,1304,w0d04a41,Blue,1.0,4727.0,0,1,8,choice,After,Blue,3,-2,-1.0,5,5,2,2,0.0
619,1311,wf63c50b,Food,,,0,1,1,choice,Before,Food,1,1,1.0,5,5,1,1,1.0
620,1312,wf63c50b,Yellow,1.0,4303.0,1,1,2,choice,After,Yellow,2,2,2.0,6,6,2,2,2.0
621,1313,wf63c50b,Scene,1.0,5107.0,0,1,3,choice,Before,Scene,2,-4,-4.0,5,5,2,2,-4.0
622,1317,wf63c50b,Animal,0.0,3249.0,0,1,7,choice,Before,Animal,2,3,3.0,3,3,2,2,3.0
623,1318,wf63c50b,Yellow,,,0,1,8,choice,After,Yellow,2,4,2.0,3,3,1,1,1.0
624,1325,w3c538ad,Scene,0.0,3240.0,1,1,1,choice,After,Scene,3,-1,-1.0,4,4,2,2,0.0
625,1326,w3c538ad,Yellow,0.0,1070.0,1,1,2,choice,Before,Yellow,3,-2,-6.0,5,5,3,3,-6.0
626,1327,w3c538ad,Yellow,1.0,3182.0,1,1,3,choice,After,Yellow,3,1,0.0,4,4,1,2,-2.0
627,1328,w3c538ad,Scene,1.0,994.0,1,1,4,choice,Before,Scene,1,2,2.0,6,6,1,1,2.0
628,1329,w3c538ad,Scene,1.0,2698.0,1,1,5,choice,After,Scene,2,3,3.0,4,4,2,2,3.0
629,1330,w3c538ad,Scene,0.0,848.0,1,1,6,choice,Before,Scene,1,-2,-2.0,4,4,1,1,-2.0
630,1331,w3c538ad,Blue,1.0,1889.0,1,1,7,choice,After,Blue,2,2,2.0,5,5,2,2,2.0
631,1332,w3c538ad,Red,0.0,1703.0,1,1,8,choice,Before,Red,3,-2,2.0,5,5,3,3,2.0
632,1340,wd47555e,Green,1.0,2823.0,1,1,2,choice,After,Green,2,4,0.0,4,4,1,1,-1.0
633,1341,wd47555e,Yellow,0.0,2352.0,1,1,3,choice,Before,Yellow,3,-4,3.0,4,4,2,3,2.0
634,1342,wd47555e,Animal,1.0,3236.0,0,1,4,choice,After,Animal,2,-3,-1.0,1,1,1,2,1.0
635,1343,wd47555e,Red,0.0,1018.0,1,1,5,choice,Before,Red,2,-3,-3.0,4,4,1,1,-2.0
636,1344,wd47555e,Scene,0.0,6324.0,1,1,6,choice,After,Scene,1,-2,-2.0,6,6,1,1,-2.0
637,1345,wd47555e,Food,,,0,1,7,choice,Before,Food,1,2,2.0,6,6,1,1,2.0
638,1346,wd47555e,Object,1.0,6059.0,1,1,8,choice,After,Object,1,2,2.0,6,6,1,1,2.0
639,1353,w7232115,Red,1.0,1976.0,1,1,1,choice,Before,Red,2,4,4.0,4,4,1,2,2.0
640,1354,w7232115,Green,1.0,3900.0,0,1,2,choice,After,Green,1,-2,-2.0,3,3,1,2,-2.0
641,1356,w7232115,Yellow,0.0,3795.0,1,1,4,choice,After,Yellow,3,-1,1.0,6,6,3,3,1.0
642,1357,w7232115,Food,1.0,1801.0,1,1,5,choice,Before,Food,1,2,2.0,5,5,1,1,2.0
643,1358,w7232115,Scene,0.0,3474.0,1,1,6,choice,After,Scene,3,-2,-3.0,5,5,2,2,-4.0
644,1366,w182a5f6,Yellow,0.0,2173.0,1,1,1,choice,After,Yellow,3,-2,-5.0,6,6,3,3,-5.0
645,1367,w182a5f6,Food,1.0,2296.0,1,1,2,choice,Before,Food,2,1,-2.0,4,4,2,2,-2.0
646,1368,w182a5f6,Red,1.0,3526.0,0,1,3,choice,After,Red,2,-4,-4.0,4,4,1,1,-2.0
647,1369,w182a5f6,Red,0.0,1279.0,1,1,4,choice,Before,Red,1,-2,-2.0,3,3,1,1,-2.0
648,1371,wf469935,Yellow,0.0,2946.0,1,1,2,choice,Before,Yellow,2,-4,-4.0,5,5,2,2,-4.0
649,1372,wf469935,Green,1.0,3076.0,1,1,3,choice,After,Green,3,3,3.0,6,6,3,3,3.0
650,1374,wf469935,Blue,0.0,3411.0,1,1,5,choice,After,Blue,2,-1,-2.0,5,5,2,2,-2.0
651,1375,wf469935,Food,0.0,2214.0,1,1,6,choice,Before,Food,2,-1,-1.0,4,4,2,2,-1.0
652,1376,wf469935,Animal,1.0,7421.0,1,1,7,choice,After,Animal,2,1,1.0,5,5,1,1,-1.0
653,1377,wf469935,Food,0.0,1533.0,1,1,8,choice,Before,Food,3,-2,-2.0,5,5,3,3,-2.0
654,1384,w610dd08,Object,0.0,1885.0,1,1,1,choice,Before,Object,2,-3,-4.0,6,6,2,2,-4.0
655,1385,w610dd08,Yellow,1.0,4323.0,1,1,2,choice,After,Yellow,3,3,2.0,5,5,3,3,2.0
656,1386,w610dd08,Red,0.0,2432.0,1,1,3,choice,Before,Red,3,-4,-6.0,3,3,2,2,-4.0
657,1387,w610dd08,Blue,1.0,1519.0,0,1,4,choice,After,Blue,3,-2,0.0,2,2,1,2,-2.0
658,1388,w610dd08,Blue,1.0,1346.0,0,1,5,choice,Before,Blue,2,-1,3.0,4,4,1,1,2.0
659,1389,w610dd08,Food,1.0,1759.0,1,1,6,choice,After,Food,3,1,1.0,4,4,3,3,1.0
660,1390,w610dd08,Object,1.0,2721.0,0,1,7,choice,Before,Object,1,-1,1.0,2,2,1,1,1.0
661,1391,w610dd08,Animal,1.0,2950.0,1,1,8,choice,After,Animal,3,2,2.0,2,2,1,2,-1.0
662,1398,wad32437,Animal,1.0,1549.0,1,1,1,choice,Before,Animal,2,1,4.0,4,4,1,1,2.0
663,1401,wad32437,Blue,1.0,2008.0,1,1,4,choice,After,Blue,2,4,4.0,4,4,1,1,2.0
664,1402,wad32437,Yellow,1.0,938.0,1,1,5,choice,Before,Yellow,2,2,4.0,5,5,2,2,4.0
665,1403,wad32437,Green,1.0,1039.0,1,1,6,choice,After,Green,3,2,0.0,2,2,1,2,-2.0
666,1404,wad32437,Blue,1.0,720.0,0,1,7,choice,Before,Blue,1,-2,1.0,4,4,1,1,1.0
667,1405,wad32437,Food,1.0,3928.0,0,1,8,choice,After,Food,1,-1,1.0,4,4,1,2,1.0
668,1413,w409b474,Yellow,1.0,975.0,1,1,2,choice,Before,Yellow,2,1,1.0,6,6,2,2,1.0
669,1414,w409b474,Food,1.0,6634.0,1,1,3,choice,After,Food,3,2,5.0,5,5,2,3,4.0
670,1415,w409b474,Scene,0.0,913.0,1,1,4,choice,Before,Scene,2,-1,-1.0,5,5,2,2,-1.0
671,1416,w409b474,Yellow,0.0,2411.0,0,1,5,choice,After,Yellow,1,2,-2.0,3,3,1,2,-2.0
672,1417,w409b474,Food,1.0,563.0,1,1,6,choice,Before,Food,2,2,2.0,5,5,2,2,2.0
673,1418,w409b474,Scene,0.0,3405.0,0,1,7,choice,After,Scene,1,1,1.0,5,5,1,1,1.0
674,1419,w409b474,Red,1.0,924.0,1,1,8,choice,Before,Red,3,4,4.0,6,6,3,3,4.0
675,1427,wc43fbaa,Object,,,0,1,2,choice,After,Object,1,-2,-2.0,5,5,1,1,-2.0
676,1428,wc43fbaa,Food,1.0,4678.0,0,1,3,choice,Before,Food,1,-1,-2.0,4,4,1,1,-2.0
677,1429,wc43fbaa,Object,,,0,1,4,choice,After,Object,3,-1,-2.0,6,6,3,3,-2.0
678,1430,wc43fbaa,Yellow,1.0,4752.0,0,1,5,choice,Before,Yellow,1,-1,1.0,4,4,1,1,1.0
679,1431,wc43fbaa,Red,1.0,7172.0,1,1,6,choice,After,Red,2,1,-1.0,5,5,2,2,-1.0
680,1433,wc43fbaa,Yellow,0.0,4511.0,0,1,8,choice,After,Yellow,2,1,1.0,4,4,2,2,1.0
681,1440,w9f7c438,Red,1.0,6526.0,1,1,1,choice,After,Red,1,1,1.0,5,5,1,1,1.0
682,1441,w9f7c438,Red,0.0,3287.0,1,1,2,choice,Before,Red,1,-1,-1.0,2,2,1,1,-1.0
683,1442,w9f7c438,Animal,0.0,3314.0,1,1,3,choice,After,Animal,3,-1,-2.0,1,1,1,1,-2.0
684,1443,w9f7c438,Green,0.0,1918.0,1,1,4,choice,Before,Green,2,-3,-4.0,4,4,2,2,-4.0
685,1445,w9f7c438,Blue,0.0,1934.0,1,1,6,choice,Before,Blue,3,-1,-1.0,3,3,2,2,1.0
686,1447,w3fc2d2c,Food,,,0,1,1,choice,After,Food,1,-1,-2.0,4,4,1,1,-2.0
687,1448,w3fc2d2c,Blue,,,0,1,2,choice,Before,Blue,2,-2,-2.0,6,6,2,2,-2.0
688,1449,w3fc2d2c,Food,1.0,2139.0,0,1,3,choice,After,Food,3,-1,3.0,3,3,2,2,1.0
689,1450,w3fc2d2c,Red,1.0,2082.0,1,1,4,choice,Before,Red,1,2,2.0,5,5,1,1,2.0
690,1451,w3fc2d2c,Scene,0.0,3208.0,1,1,5,choice,After,Scene,1,-2,-2.0,6,6,1,1,-2.0
691,1452,w3fc2d2c,Yellow,0.0,4430.0,1,1,6,choice,Before,Yellow,1,-2,-2.0,6,6,1,1,-2.0
692,1453,w3fc2d2c,Blue,0.0,5084.0,1,1,7,choice,After,Blue,1,-1,-1.0,6,6,1,1,-1.0
693,1454,w3fc2d2c,Object,1.0,5036.0,1,1,8,choice,Before,Object,3,1,1.0,6,6,3,3,1.0
694,1461,we10d2c6,Yellow,0.0,7293.0,1,1,1,choice,After,Yellow,3,-1,0.0,5,5,2,2,0.0
695,1462,we10d2c6,Object,1.0,6917.0,1,1,2,choice,Before,Object,2,1,1.0,6,6,2,2,1.0
696,1463,we10d2c6,Yellow,1.0,7283.0,1,1,3,choice,After,Yellow,2,3,3.0,5,5,2,2,3.0
697,1464,we10d2c6,Green,,,0,1,4,choice,Before,Green,1,1,1.0,3,3,1,1,1.0
698,1466,we10d2c6,Scene,1.0,2487.0,1,1,6,choice,Before,Scene,2,1,0.0,5,5,2,2,0.0
699,1470,we26c55e,Food,0.0,3587.0,1,1,3,choice,Before,Food,1,-2,-1.0,4,4,1,1,-1.0
700,1471,we26c55e,Scene,1.0,3026.0,1,1,4,choice,After,Scene,1,1,-1.0,3,3,1,2,-1.0
701,1472,we26c55e,Red,0.0,2022.0,1,1,5,choice,Before,Red,2,-4,-2.0,5,5,2,2,-2.0
702,1474,we26c55e,Green,1.0,2502.0,1,1,7,choice,Before,Green,3,1,-1.0,3,3,1,2,-1.0
703,1482,w496c8be,Green,1.0,1155.0,1,1,1,choice,Before,Green,1,2,2.0,4,4,1,1,2.0
704,1483,w496c8be,Blue,1.0,1268.0,1,1,2,choice,After,Blue,3,2,4.0,5,5,2,2,3.0
705,1484,w496c8be,Scene,1.0,856.0,1,1,3,choice,Before,Scene,2,3,3.0,3,3,1,1,1.0
706,1485,w496c8be,Blue,1.0,987.0,1,1,5,choice,Before,Blue,2,4,4.0,4,4,2,2,4.0
707,1486,we90925d,Food,1.0,3754.0,0,1,1,choice,Before,Food,1,-2,-1.0,5,5,1,1,-1.0
708,1487,we90925d,Green,0.0,2444.0,1,1,2,choice,After,Green,1,-2,-2.0,5,5,1,1,-2.0
709,1488,we90925d,Yellow,1.0,2042.0,1,1,3,choice,Before,Yellow,3,4,5.0,5,5,3,3,5.0
710,1489,we90925d,Red,1.0,2488.0,1,1,4,choice,After,Red,1,2,2.0,5,5,1,1,2.0
711,1490,we90925d,Food,0.0,540.0,1,1,5,choice,Before,Food,3,-2,-2.0,5,5,2,2,-3.0
712,1491,we90925d,Yellow,1.0,2814.0,0,1,6,choice,After,Yellow,1,-2,1.0,5,5,1,1,1.0
713,1492,we90925d,Blue,0.0,3260.0,1,1,7,choice,Before,Blue,1,-2,2.0,3,3,1,1,2.0
714,1493,we90925d,Object,1.0,3089.0,1,1,8,choice,After,Object,3,1,1.0,4,4,3,3,1.0
715,1500,w63ea659,Food,1.0,4584.0,1,1,1,choice,After,Food,1,2,1.0,4,4,1,2,1.0
716,1501,w63ea659,Food,1.0,961.0,1,1,2,choice,Before,Food,2,4,4.0,5,5,2,2,4.0
717,1502,w63ea659,Green,1.0,3034.0,1,1,3,choice,After,Green,3,5,2.0,5,5,2,2,3.0
718,1503,w63ea659,Red,1.0,885.0,1,1,4,choice,Before,Red,1,1,1.0,3,3,1,1,1.0
719,1504,w63ea659,Yellow,0.0,4362.0,0,1,5,choice,After,Yellow,1,2,-1.0,3,3,1,1,-1.0
720,1505,w63ea659,Red,1.0,638.0,1,1,6,choice,Before,Red,3,1,1.0,5,5,2,2,2.0
721,1506,w63ea659,Animal,1.0,1564.0,0,1,7,choice,After,Animal,2,-1,-4.0,4,4,2,2,-4.0
722,1507,w63ea659,Animal,1.0,708.0,1,1,8,choice,Before,Animal,2,1,1.0,3,3,1,2,1.0
723,1514,w31b60c3,Animal,1.0,5536.0,0,1,1,choice,Before,Animal,2,-3,1.0,4,4,1,2,2.0
724,1515,w31b60c3,Yellow,1.0,3380.0,1,1,2,choice,After,Yellow,3,2,4.0,5,5,3,3,4.0
725,1516,w31b60c3,Object,,,0,1,3,choice,Before,Object,2,1,3.0,4,4,2,2,3.0
726,1518,w31b60c3,Yellow,1.0,925.0,1,1,5,choice,Before,Yellow,1,2,2.0,3,3,1,1,2.0
727,1520,w31b60c3,Food,1.0,1278.0,1,1,7,choice,Before,Food,1,1,1.0,3,3,1,1,1.0
728,1528,wed3d878,Green,1.0,4937.0,1,1,1,choice,Before,Green,2,2,0.0,5,5,1,1,1.0
729,1529,wed3d878,Green,,,0,1,2,choice,After,Green,2,-1,-2.0,4,4,1,1,-1.0
730,1531,wed3d878,Animal,1.0,2329.0,1,1,4,choice,After,Animal,2,4,-1.0,5,5,2,2,-1.0
731,1532,w0db2e6f,Blue,0.0,2039.0,1,1,1,choice,Before,Blue,3,-3,-5.0,3,3,2,2,-4.0
732,1535,w0db2e6f,Blue,0.0,1509.0,0,1,4,choice,After,Blue,2,2,2.0,2,2,1,1,2.0
733,1537,w0db2e6f,Food,0.0,1888.0,1,1,6,choice,After,Food,3,-1,2.0,2,2,2,2,2.0
734,1538,w0db2e6f,Blue,0.0,779.0,1,1,7,choice,Before,Blue,1,-1,0.0,1,1,1,1,0.0
735,1539,w5fb19e8,Blue,1.0,3419.0,1,1,1,choice,After,Blue,3,1,0.0,3,3,2,2,2.0
736,1540,w5fb19e8,Food,0.0,2982.0,1,1,2,choice,Before,Food,3,-2,-2.0,4,4,2,3,0.0
737,1541,w5fb19e8,Blue,0.0,4775.0,1,1,3,choice,After,Blue,2,-3,-3.0,3,3,1,2,-2.0
738,1542,w5fb19e8,Green,0.0,2337.0,1,1,4,choice,Before,Green,2,-2,0.0,4,4,1,1,-1.0
739,1543,w5fb19e8,Scene,1.0,4746.0,1,1,5,choice,After,Scene,2,3,3.0,4,4,2,3,3.0
740,1544,w5fb19e8,Food,0.0,1926.0,1,1,6,choice,Before,Food,3,-3,-2.0,5,5,3,3,-2.0
741,1545,w5fb19e8,Object,1.0,2747.0,1,1,7,choice,After,Object,2,3,3.0,3,3,2,4,3.0
742,1546,w5fb19e8,Yellow,0.0,2814.0,1,1,8,choice,Before,Yellow,2,-2,-2.0,3,3,1,2,-1.0
743,1553,wdde7ef1,Food,1.0,2543.0,1,1,1,choice,Before,Food,1,1,1.0,6,6,1,1,1.0
744,1554,wdde7ef1,Blue,1.0,1009.0,1,1,2,choice,After,Blue,2,2,2.0,5,5,2,2,2.0
745,1555,wdde7ef1,Yellow,0.0,840.0,1,1,3,choice,Before,Yellow,3,-2,-2.0,4,4,3,3,-2.0
746,1556,wdde7ef1,Scene,0.0,4344.0,1,1,4,choice,After,Scene,2,-3,-3.0,5,5,1,1,-4.0
747,1557,wdde7ef1,Green,1.0,642.0,1,1,5,choice,Before,Green,3,1,1.0,4,4,2,2,-1.0
748,1558,wdde7ef1,Green,0.0,4712.0,1,1,6,choice,After,Green,3,-3,-4.0,4,4,2,3,-3.0
749,1559,wdde7ef1,Object,0.0,1596.0,1,1,7,choice,Before,Object,2,-3,-3.0,4,4,1,2,-1.0
750,1560,wdde7ef1,Green,,,0,1,8,choice,After,Green,2,-3,-1.0,4,4,1,2,1.0
751,1567,w56b42b0,Blue,1.0,3584.0,0,1,1,choice,Before,Blue,3,-3,5.0,3,3,1,1,1.0
752,1568,w56b42b0,Animal,,,0,1,2,choice,After,Animal,1,-2,-2.0,3,3,1,1,-2.0
753,1569,w56b42b0,Object,1.0,4723.0,0,1,3,choice,Before,Object,3,-1,2.0,2,2,1,1,2.0
754,1571,w56b42b0,Green,1.0,2254.0,1,1,5,choice,Before,Green,3,2,2.0,3,3,2,2,0.0
755,1572,w56b42b0,Red,0.0,1651.0,1,1,6,choice,After,Red,3,-3,0.0,2,2,2,2,-1.0
756,1573,w56b42b0,Red,0.0,2091.0,1,1,7,choice,Before,Red,1,-2,-2.0,2,2,1,2,-2.0
757,1574,w56b42b0,Animal,0.0,2344.0,0,1,8,choice,After,Animal,3,2,-1.0,3,3,1,1,-2.0
758,1581,w01da968,Object,0.0,2925.0,1,1,1,choice,Before,Object,2,-1,2.0,4,4,1,1,1.0
759,1582,w01da968,Blue,0.0,5086.0,1,1,2,choice,After,Blue,1,-1,-2.0,4,4,1,2,-2.0
760,1583,w01da968,Scene,0.0,1467.0,1,1,3,choice,Before,Scene,1,-1,-1.0,4,4,1,1,-1.0
761,1584,w01da968,Red,,,0,1,4,choice,After,Red,1,-2,1.0,5,5,1,1,1.0
762,1585,w01da968,Animal,1.0,1053.0,1,1,5,choice,Before,Animal,2,1,1.0,4,4,2,2,1.0
763,1586,w01da968,Yellow,0.0,1840.0,1,1,7,choice,Before,Yellow,3,-1,-1.0,4,4,3,3,-1.0
764,1587,w01da968,Blue,0.0,2114.0,1,1,8,choice,After,Blue,2,-4,-4.0,3,3,2,2,-4.0
765,1594,w896f77a,Animal,0.0,2232.0,1,1,1,choice,After,Animal,2,-3,0.0,3,3,1,2,-1.0
766,1595,w896f77a,Yellow,1.0,1702.0,1,1,2,choice,Before,Yellow,3,2,2.0,5,5,3,4,2.0
767,1596,w896f77a,Blue,0.0,1632.0,0,1,3,choice,After,Blue,2,3,0.0,4,4,1,2,-1.0
768,1597,w896f77a,Blue,0.0,2218.0,1,1,4,choice,Before,Blue,1,-2,-2.0,3,3,1,1,-2.0
769,1598,w896f77a,Object,1.0,4534.0,1,1,5,choice,After,Object,3,5,5.0,6,6,3,3,5.0
770,1599,w896f77a,Animal,1.0,4388.0,1,1,6,choice,Before,Animal,2,1,1.0,3,3,2,2,1.0
771,1600,w896f77a,Green,1.0,3286.0,0,1,7,choice,After,Green,3,-4,-5.0,2,2,2,2,-3.0
772,1601,w896f77a,Red,1.0,2751.0,1,1,8,choice,Before,Red,3,1,1.0,5,5,3,3,1.0
773,1602,wc8b5d36,Blue,1.0,2735.0,0,1,1,choice,After,Blue,2,-1,-1.0,4,4,2,2,-1.0
774,1603,wc8b5d36,Scene,0.0,1757.0,1,1,2,choice,Before,Scene,1,-1,-1.0,4,4,1,1,-1.0
775,1604,wc8b5d36,Object,1.0,4108.0,0,1,3,choice,After,Object,1,-1,-1.0,5,5,1,1,-1.0
776,1605,wc8b5d36,Green,0.0,1711.0,1,1,4,choice,Before,Green,1,-1,-1.0,4,4,1,1,-1.0
777,1606,wc8b5d36,Red,1.0,2822.0,1,1,5,choice,After,Red,2,4,4.0,5,5,2,2,4.0
778,1607,wc8b5d36,Green,0.0,1398.0,1,1,6,choice,Before,Green,3,-1,-1.0,6,6,3,3,-1.0
779,1609,wc8b5d36,Red,1.0,801.0,1,1,8,choice,Before,Red,1,1,1.0,4,4,1,1,1.0
780,1616,wb2d9807,Blue,0.0,4757.0,0,1,1,choice,Before,Blue,3,1,-4.0,3,3,3,3,-4.0
781,1617,wb2d9807,Blue,1.0,2611.0,1,1,2,choice,After,Blue,2,3,0.0,4,4,1,1,0.0
782,1618,wb2d9807,Yellow,0.0,3773.0,1,1,3,choice,Before,Yellow,3,-2,-6.0,3,3,3,3,-6.0
783,1620,wb2d9807,Scene,1.0,2705.0,0,1,6,choice,After,Scene,2,-1,0.0,2,2,1,2,0.0
784,1621,w0baed73,Object,0.0,6990.0,0,1,1,choice,Before,Object,3,1,-2.0,5,5,3,3,-2.0
785,1622,w0baed73,Scene,1.0,2631.0,0,1,2,choice,After,Scene,3,-4,0.0,4,4,2,2,1.0
786,1623,w0baed73,Animal,1.0,1151.0,1,1,3,choice,Before,Animal,2,1,0.0,5,5,2,2,0.0
787,1624,w0baed73,Blue,1.0,3329.0,0,1,4,choice,After,Blue,2,-3,-4.0,3,3,1,1,-2.0
788,1625,w0baed73,Blue,1.0,1111.0,1,1,5,choice,Before,Blue,1,1,1.0,6,6,1,1,1.0
789,1626,w0baed73,Red,1.0,1417.0,1,1,7,choice,Before,Red,3,1,0.0,3,3,2,3,-2.0
790,1627,wfd8b568,Red,1.0,6522.0,1,1,1,choice,After,Red,2,3,3.0,3,3,1,3,1.0
791,1628,wfd8b568,Yellow,0.0,1895.0,1,1,2,choice,Before,Yellow,2,-3,-3.0,4,4,2,2,-3.0
792,1629,wfd8b568,Animal,,,0,1,3,choice,After,Animal,1,1,-2.0,3,3,1,1,-2.0
793,1630,wfd8b568,Animal,0.0,1590.0,1,1,4,choice,Before,Animal,3,-2,-2.0,4,4,2,2,-1.0
794,1633,wfd8b568,Animal,1.0,2759.0,1,1,7,choice,After,Animal,2,4,4.0,4,4,2,2,4.0
795,1634,wfd8b568,Scene,1.0,2441.0,1,1,8,choice,Before,Scene,1,1,1.0,3,3,1,2,1.0
796,1655,wfbb00e1,Blue,1.0,2197.0,1,1,1,choice,After,Blue,3,1,2.0,2,2,1,1,1.0
797,1656,wfbb00e1,Green,0.0,1837.0,0,1,2,choice,Before,Green,2,1,3.0,3,3,1,1,2.0
798,1659,wfbb00e1,Scene,1.0,1420.0,0,1,5,choice,After,Scene,3,-1,2.0,3,3,1,1,-1.0
799,1660,wfbb00e1,Food,1.0,2118.0,1,1,6,choice,Before,Food,3,1,5.0,3,3,1,1,1.0
800,1661,wfbb00e1,Red,0.0,5181.0,1,1,7,choice,After,Red,1,-1,2.0,2,2,1,2,2.0
801,1662,wfbb00e1,Blue,1.0,993.0,1,1,8,choice,Before,Blue,2,1,0.0,4,4,2,2,0.0
802,1670,wea09e5e,Yellow,0.0,3897.0,0,1,1,choice,After,Yellow,3,1,1.0,5,5,2,2,0.0
803,1671,wea09e5e,Scene,1.0,2038.0,1,1,2,choice,Before,Scene,1,2,2.0,5,5,1,1,2.0
804,1672,wea09e5e,Red,0.0,4371.0,0,1,3,choice,After,Red,3,1,-1.0,4,4,1,1,-1.0
805,1673,wea09e5e,Object,1.0,4558.0,1,1,4,choice,Before,Object,2,1,3.0,5,5,2,2,3.0
806,1674,wea09e5e,Scene,0.0,6731.0,1,1,5,choice,After,Scene,2,-1,0.0,4,4,1,1,-4.0
807,1675,wea09e5e,Animal,1.0,4809.0,0,1,6,choice,Before,Animal,1,-2,-2.0,6,6,1,1,-2.0
808,1676,wea09e5e,Food,,,0,1,7,choice,After,Food,1,2,2.0,5,5,1,1,2.0
809,1677,wea09e5e,Yellow,1.0,921.0,0,1,8,choice,Before,Yellow,2,-1,-1.0,5,5,2,2,-1.0
