,index,wid,option,choice,rt,correct,trial_number,game,phase,n_true_memories,n_considered,value,remembered_value,n_total_memories_shown,n_total_memories,n_remembered_shown,n_remembered,recalled_mem_value,considered_value,considered_mem_value,considered_recalled_mem_value,recalled_mem_value_z
0,0,w7c1d29f,Red,0.0,1832.0,0,1,1,choice,1,1,2,2.0,4,4,1,1,2.0,2,2.0,2.0,0.17475843461019738
1,1,w7c1d29f,Blue,0.0,3242.0,1,2,1,choice,3,2,-4,-4.0,4,4,2,2,2.0,1,2.0,2.0,0.17475843461019738
2,3,w7c1d29f,Scene,0.0,5080.0,0,1,2,choice,3,2,3,1.0,6,6,3,3,1.0,-1,-1.0,-1.0,0.013551542586897376
3,4,w7c1d29f,Object,1.0,5931.0,1,2,2,choice,2,2,4,5.0,6,6,2,2,5.0,4,5.0,5.0,0.6583791106800975
4,5,w7c1d29f,Food,0.0,3359.0,1,3,2,choice,1,1,-7,-8.0,6,6,1,1,-8.0,-7,-8.0,-8.0,-1.4373104856228027
5,6,w7c1d29f,Food,1.0,2484.0,0,1,3,choice,3,3,-3,2.0,6,6,3,3,2.0,-8,2.0,2.0,0.17475843461019738
6,8,w7c1d29f,Blue,0.0,3778.0,1,3,3,choice,2,1,-4,-1.0,6,6,2,2,-1.0,-10,-2.0,-2.0,-0.3088622414597027
7,10,w7c1d29f,Yellow,0.0,3593.0,1,2,4,choice,1,1,-3,-4.0,6,6,1,1,-4.0,-3,-4.0,-4.0,-0.7924829175296029
8,11,w7c1d29f,Red,1.0,1632.0,1,3,4,choice,3,2,1,4.0,6,6,3,3,4.0,9,11.0,11.0,0.49717221865679745
9,12,w7c1d29f,Animal,0.0,5005.0,1,1,5,choice,3,3,-1,-4.0,6,6,3,3,-4.0,-1,-4.0,-4.0,-0.7924829175296029
10,13,w7c1d29f,Scene,1.0,1734.0,0,2,5,choice,2,2,-7,9.0,6,6,2,2,9.0,-7,9.0,9.0,1.3032066787732979
11,14,w7c1d29f,Object,1.0,4263.0,1,3,5,choice,1,1,5,5.0,6,6,1,1,5.0,5,5.0,5.0,0.6583791106800975
12,15,wfe9216a,Scene,1.0,7246.0,1,1,1,choice,3,1,5,-14.0,5,5,2,2,-14.0,-9,-9.0,-9.0,-2.404551837762603
13,16,wfe9216a,Object,0.0,5883.0,1,2,1,choice,2,1,-4,-1.0,5,5,2,2,-1.0,-5,4.0,4.0,-0.3088622414597027
14,17,wfe9216a,Animal,0.0,3731.0,1,3,1,choice,1,1,-2,0.0,5,5,1,2,0.0,-2,2.0,2.0,-0.14765534943640266
15,18,wfe9216a,Object,1.0,6613.0,0,1,2,choice,1,1,-7,-8.0,6,6,1,1,-8.0,-7,-8.0,-8.0,-1.4373104856228027
16,19,wfe9216a,Food,0.0,1011.0,0,2,2,choice,3,2,1,1.0,6,6,3,3,1.0,-4,-3.0,-3.0,0.013551542586897376
17,20,wfe9216a,Scene,1.0,5879.0,1,3,2,choice,2,1,1,-1.0,6,6,2,2,-1.0,3,-1.0,-1.0,-0.3088622414597027
18,21,wfe9216a,Green,1.0,2241.0,1,1,3,choice,2,1,2,-9.0,3,3,1,1,-7.0,-4,-7.0,-7.0,-1.2761035935995029
19,22,wfe9216a,Animal,1.0,4574.0,0,2,3,choice,1,1,-8,0.0,3,3,1,1,0.0,-16,3.0,3.0,-0.14765534943640266
20,23,wfe9216a,Yellow,1.0,4446.0,0,3,3,choice,3,1,-6,8.0,3,3,2,2,8.0,-16,3.0,3.0,1.1419997867499976
21,24,wfe9216a,Blue,1.0,2087.0,1,1,4,choice,3,2,1,0.0,4,4,3,3,0.0,7,6.0,6.0,-0.14765534943640266
22,25,wfe9216a,Yellow,1.0,2988.0,0,2,4,choice,1,1,-4,3.0,4,4,1,2,3.0,-4,3.0,3.0,0.33596532663349743
23,28,wfe9216a,Green,0.0,1695.0,1,2,5,choice,3,1,-1,-1.0,2,2,1,1,-2.0,-2,-2.0,-2.0,-0.4700691334830028
24,32,w47f6859,Animal,0.0,707.0,1,3,1,choice,2,1,-1,10.0,4,4,2,2,10.0,-9,7.0,7.0,1.4644135707965977
25,33,w47f6859,Scene,1.0,2881.0,0,1,2,choice,2,1,-5,13.0,5,5,2,2,13.0,4,4.0,4.0,1.948034246866498
26,34,w47f6859,Food,1.0,6069.0,0,2,2,choice,3,1,-2,10.0,5,5,2,2,6.0,-6,-2.0,-2.0,0.8195860027033975
27,35,w47f6859,Yellow,0.0,1990.0,1,3,2,choice,1,1,-3,-2.0,5,5,1,1,-2.0,-6,-2.0,-2.0,-0.4700691334830028
28,36,w47f6859,Scene,0.0,1180.0,0,1,3,choice,2,1,8,8.0,4,4,2,2,8.0,8,-1.0,-1.0,1.1419997867499976
29,37,w47f6859,Green,0.0,2552.0,1,2,3,choice,3,2,-4,-4.0,4,4,2,2,2.0,2,2.0,2.0,0.17475843461019738
30,41,w47f6859,Blue,1.0,2959.0,0,3,4,choice,3,2,-5,-22.0,3,3,2,2,-14.0,3,-14.0,-14.0,-2.404551837762603
31,43,w47f6859,Yellow,0.0,586.0,0,2,5,choice,3,1,1,-9.0,1,1,1,1,-7.0,-4,-7.0,-7.0,-1.2761035935995029
32,46,w488be27,Scene,0.0,4538.0,0,2,1,choice,2,1,3,-1.0,5,5,2,2,-1.0,-1,-1.0,-1.0,-0.3088622414597027
33,47,w488be27,Object,1.0,2514.0,0,3,1,choice,3,1,-4,-4.0,5,5,2,2,1.0,7,7.0,7.0,0.013551542586897376
34,49,w488be27,Object,0.0,2391.0,0,2,2,choice,3,1,5,7.0,3,3,1,1,7.0,8,7.0,7.0,0.9807928947266976
35,56,w488be27,Blue,0.0,1539.0,1,3,4,choice,3,1,-3,-5.0,2,2,1,1,-5.0,-4,-5.0,-5.0,-0.9536898095529028
36,57,w488be27,Red,0.0,3923.0,1,1,5,choice,2,2,-3,6.0,1,1,1,1,6.0,-6,6.0,6.0,0.8195860027033975
37,76,w973f72a,Scene,1.0,2150.0,1,2,1,choice,2,1,3,11.0,3,3,1,1,9.0,9,9.0,9.0,1.3032066787732979
38,77,w973f72a,Object,1.0,1932.0,1,3,1,choice,3,1,2,9.0,3,3,1,1,3.0,4,3.0,3.0,0.33596532663349743
39,78,w973f72a,Red,1.0,2163.0,1,1,2,choice,2,1,2,2.0,3,3,1,1,7.0,7,7.0,7.0,0.9807928947266976
40,80,w973f72a,Blue,1.0,811.0,1,3,2,choice,3,1,1,2.0,3,3,1,1,3.0,3,3.0,3.0,0.33596532663349743
41,83,w973f72a,Yellow,0.0,1890.0,1,3,3,choice,2,1,-4,2.0,1,1,1,1,2.0,2,2.0,2.0,0.17475843461019738
42,84,w973f72a,Animal,1.0,1996.0,1,1,4,choice,2,2,1,1.0,4,4,2,2,1.0,7,1.0,1.0,0.013551542586897376
43,86,w973f72a,Green,1.0,1305.0,1,3,4,choice,3,2,1,10.0,4,4,2,2,10.0,15,10.0,10.0,1.4644135707965977
44,87,w973f72a,Object,0.0,3266.0,1,1,5,choice,3,2,-1,-3.0,2,2,2,2,-6.0,-11,-6.0,-6.0,-1.1148967015762028
45,89,w973f72a,Red,0.0,3835.0,1,3,5,choice,2,1,-1,3.0,2,2,1,1,-4.0,-6,-4.0,-4.0,-0.7924829175296029
46,91,wd7d7085,Object,1.0,2157.0,0,2,1,choice,2,4,-4,8.0,2,2,1,2,5.0,-11,8.0,5.0,0.6583791106800975
47,92,wd7d7085,Yellow,1.0,1971.0,0,3,1,choice,3,4,-5,13.0,2,2,2,3,10.0,-4,9.0,10.0,1.4644135707965977
48,93,wd7d7085,Red,0.0,2639.0,1,1,2,choice,1,3,-5,-7.0,6,6,1,1,-7.0,-5,-7.0,-7.0,-1.2761035935995029
49,94,wd7d7085,Blue,1.0,3659.0,1,2,2,choice,2,2,1,-1.0,6,6,2,2,-1.0,1,-1.0,-1.0,-0.3088622414597027
50,95,wd7d7085,Yellow,1.0,1269.0,1,3,2,choice,3,3,3,-6.0,6,6,3,3,-6.0,3,-6.0,-6.0,-1.1148967015762028
51,96,wd7d7085,Food,0.0,3319.0,1,1,3,choice,3,2,-3,19.0,5,5,3,3,19.0,5,10.0,10.0,2.915275599006298
52,97,wd7d7085,Scene,1.0,4212.0,1,2,3,choice,1,2,6,-4.0,5,5,1,2,-4.0,6,-4.0,-4.0,-0.7924829175296029
53,98,wd7d7085,Animal,1.0,3379.0,0,3,3,choice,2,2,-4,2.0,5,5,1,1,-6.0,-4,2.0,-6.0,-1.1148967015762028
54,99,wd7d7085,Food,1.0,1923.0,1,1,4,choice,1,2,7,7.0,5,5,1,1,7.0,7,7.0,7.0,0.9807928947266976
55,100,wd7d7085,Green,1.0,4674.0,0,2,4,choice,3,2,-1,9.0,5,5,2,2,14.0,-1,2.0,7.0,2.109241138889798
56,101,wd7d7085,Blue,1.0,1565.0,0,3,4,choice,2,3,-4,15.0,5,5,2,3,15.0,-4,15.0,15.0,2.270448030913098
57,102,wd7d7085,Red,0.0,1564.0,0,1,5,choice,2,2,3,-7.0,4,4,1,3,-4.0,-1,-4.0,-4.0,-0.7924829175296029
58,103,wd7d7085,Object,1.0,2090.0,1,2,5,choice,3,2,2,10.0,4,4,1,1,5.0,-2,13.0,5.0,0.6583791106800975
59,104,wd7d7085,Scene,1.0,1751.0,0,3,5,choice,1,2,-8,5.0,4,4,1,2,5.0,-8,5.0,5.0,0.6583791106800975
60,105,w502a382,Blue,1.0,2113.0,1,1,1,choice,3,4,3,8.0,4,4,2,2,6.0,12,8.0,6.0,0.8195860027033975
61,107,w502a382,Scene,1.0,1417.0,0,3,1,choice,2,4,-4,3.0,4,4,2,2,3.0,0,3.0,3.0,0.33596532663349743
62,112,w502a382,Scene,1.0,573.0,1,2,3,choice,3,4,1,-4.0,1,1,1,2,-7.0,1,-4.0,-7.0,-1.2761035935995029
63,114,w502a382,Red,1.0,1709.0,1,1,4,choice,3,4,2,1.0,3,3,1,2,-2.0,2,1.0,-2.0,-0.4700691334830028
64,115,w502a382,Blue,0.0,886.0,1,2,4,choice,1,4,-9,-5.0,3,3,1,2,-5.0,-9,-5.0,-5.0,-0.9536898095529028
65,119,w502a382,Green,1.0,387.0,1,3,5,choice,3,3,3,5.0,2,2,1,2,5.0,3,0.0,5.0,0.6583791106800975
66,120,w8f47681,Object,,,0,1,1,choice,2,1,7,-10.0,3,3,1,1,-8.0,-2,-8.0,-8.0,-1.4373104856228027
67,121,w8f47681,Red,0.0,60.0,1,2,1,choice,3,1,-2,4.0,3,3,2,2,6.0,-10,2.0,2.0,0.8195860027033975
68,122,w8f47681,Food,1.0,2578.0,0,3,1,choice,1,3,-5,2.0,3,3,1,2,2.0,-10,2.0,2.0,0.17475843461019738
69,123,w8f47681,Blue,0.0,3654.0,1,1,2,choice,3,3,-2,-5.0,4,4,2,2,-14.0,-2,-5.0,-14.0,-2.404551837762603
70,124,w8f47681,Yellow,1.0,2640.0,1,2,2,choice,1,1,8,8.0,4,4,1,1,8.0,8,8.0,8.0,1.1419997867499976
71,125,w8f47681,Green,0.0,2507.0,0,3,2,choice,2,1,1,1.0,4,4,1,1,-3.0,-3,-3.0,-3.0,-0.6312760255063028
72,126,w8f47681,Object,0.0,3130.0,1,1,3,choice,2,2,-3,0.0,5,5,1,1,-2.0,-1,0.0,-2.0,-0.4700691334830028
73,127,w8f47681,Green,0.0,3120.0,1,2,3,choice,1,1,-3,2.0,5,5,1,1,2.0,-3,2.0,2.0,0.17475843461019738
74,128,w8f47681,Blue,0.0,3710.0,0,3,3,choice,3,3,1,1.0,5,5,3,3,1.0,3,1.0,1.0,0.013551542586897376
75,129,w8f47681,Animal,1.0,3573.0,1,1,4,choice,1,1,7,3.0,5,5,1,1,3.0,7,3.0,3.0,0.33596532663349743
76,130,w8f47681,Food,0.0,3286.0,0,2,4,choice,2,2,1,-2.0,5,5,1,1,3.0,7,-2.0,3.0,0.33596532663349743
77,131,w8f47681,Red,1.0,2381.0,1,3,4,choice,3,2,5,-2.0,5,5,3,3,-2.0,11,-5.0,-5.0,-0.4700691334830028
78,132,w8f47681,Scene,1.0,2781.0,1,1,5,choice,1,1,3,3.0,5,5,1,1,3.0,3,3.0,3.0,0.33596532663349743
79,133,w8f47681,Yellow,0.0,1125.0,1,2,5,choice,2,1,-4,-1.0,5,5,2,2,-1.0,-12,-3.0,-3.0,-0.3088622414597027
80,134,w8f47681,Animal,1.0,4168.0,0,3,5,choice,3,3,-3,-8.0,5,5,2,2,-1.0,-9,-8.0,-1.0,-0.3088622414597027
81,135,w8e2568d,Green,1.0,3342.0,1,1,1,choice,2,3,8,11.0,3,3,1,1,2.0,-1,2.0,2.0,0.17475843461019738
82,137,w8e2568d,Blue,1.0,992.0,1,3,1,choice,3,3,3,17.0,3,3,1,1,5.0,10,11.0,5.0,0.6583791106800975
83,138,w8e2568d,Animal,0.0,5411.0,0,1,2,choice,3,3,2,-5.0,4,4,2,2,-3.0,2,-5.0,-3.0,-0.6312760255063028
84,139,w8e2568d,Yellow,1.0,2866.0,0,2,2,choice,2,1,-4,4.0,4,4,1,1,6.0,-4,6.0,6.0,0.8195860027033975
85,140,w8e2568d,Object,1.0,6104.0,0,3,2,choice,1,3,-2,9.0,4,4,1,1,9.0,-2,9.0,9.0,1.3032066787732979
86,141,w8e2568d,Food,1.0,1380.0,0,1,3,choice,3,2,-3,11.0,2,2,1,1,7.0,-8,7.0,7.0,0.9807928947266976
87,142,w8e2568d,Red,1.0,2174.0,1,2,3,choice,2,1,4,9.0,2,2,1,1,7.0,-8,7.0,7.0,0.9807928947266976
88,144,w8e2568d,Food,0.0,3208.0,1,1,4,choice,3,4,-4,9.0,1,1,1,1,-2.0,5,9.0,-2.0,-0.4700691334830028
89,151,w4a643e0,Scene,1.0,1250.0,0,2,1,choice,2,2,-4,-3.0,4,4,2,2,-3.0,-8,-3.0,-3.0,-0.6312760255063028
90,152,w4a643e0,Object,1.0,1761.0,0,3,1,choice,3,8,-3,7.0,4,4,2,3,11.0,-3,-4.0,8.0,1.6256204628198978
91,153,w4a643e0,Blue,1.0,1704.0,0,1,2,choice,3,4,-2,-2.0,6,6,3,3,-2.0,-2,-2.0,-2.0,-0.4700691334830028
92,154,w4a643e0,Red,0.0,1355.0,0,2,2,choice,2,1,1,-8.0,6,6,2,2,-8.0,2,-4.0,-4.0,-1.4373104856228027
93,158,w4a643e0,Food,1.0,1081.0,0,3,3,choice,2,3,-1,2.0,2,2,2,3,2.0,-1,2.0,2.0,0.17475843461019738
94,159,w4a643e0,Object,1.0,2078.0,1,1,4,choice,3,2,3,-10.0,3,3,2,2,-11.0,-9,-11.0,-11.0,-1.920931161692703
95,160,w4a643e0,Yellow,0.0,920.0,1,2,4,choice,1,2,-8,-7.0,3,3,1,1,-7.0,-16,-7.0,-7.0,-1.2761035935995029
96,161,w4a643e0,Food,0.0,405.0,1,3,4,choice,2,3,-3,4.0,3,3,1,2,8.0,3,8.0,8.0,1.1419997867499976
97,163,w4a643e0,Yellow,0.0,777.0,1,2,5,choice,3,3,-6,12.0,2,2,2,2,5.0,10,3.0,-4.0,0.6583791106800975
98,164,w4a643e0,Scene,1.0,677.0,1,3,5,choice,2,2,8,1.0,2,2,1,2,-4.0,18,-4.0,-4.0,-0.7924829175296029
99,165,w9f6c077,Blue,1.0,2238.0,0,1,1,choice,3,5,-1,-8.0,4,4,2,2,-3.0,-6,-8.0,-3.0,-0.6312760255063028
100,166,w9f6c077,Green,1.0,3124.0,1,2,1,choice,2,4,1,6.0,4,4,1,1,9.0,1,6.0,9.0,1.3032066787732979
101,167,w9f6c077,Scene,0.0,2172.0,1,3,1,choice,1,4,-5,-5.0,4,4,1,1,-5.0,-10,-5.0,-5.0,-0.9536898095529028
102,168,w9f6c077,Object,1.0,3082.0,0,1,2,choice,2,2,-1,9.0,4,4,1,1,5.0,-1,9.0,5.0,0.6583791106800975
103,169,w9f6c077,Yellow,0.0,2098.0,1,2,2,choice,1,1,-6,-3.0,4,4,1,1,-3.0,-12,-3.0,-3.0,-0.6312760255063028
104,170,w9f6c077,Food,1.0,1994.0,1,3,2,choice,3,2,3,-6.0,4,4,2,2,-1.0,-8,-1.0,-1.0,-0.3088622414597027
105,171,w9f6c077,Green,1.0,5055.0,1,1,3,choice,1,2,5,2.0,2,2,1,1,2.0,5,2.0,2.0,0.17475843461019738
106,172,w9f6c077,Red,1.0,988.0,0,2,3,choice,3,2,-1,9.0,2,2,1,1,9.0,16,11.0,9.0,1.3032066787732979
107,173,w9f6c077,Animal,1.0,1646.0,1,3,3,choice,2,1,8,6.0,2,2,1,1,9.0,18,9.0,9.0,1.3032066787732979
108,174,w9f6c077,Scene,0.0,2430.0,1,1,4,choice,3,3,-3,-9.0,4,4,3,3,-9.0,-8,-9.0,-9.0,-1.5985173776461028
109,176,w9f6c077,Red,0.0,4257.0,1,3,4,choice,2,2,-2,-4.0,4,4,2,3,-4.0,-7,-4.0,-4.0,-0.7924829175296029
110,177,w9f6c077,Food,0.0,4455.0,0,1,5,choice,2,1,2,-1.0,3,3,1,1,-5.0,-8,-5.0,-5.0,-0.9536898095529028
111,178,w9f6c077,Yellow,0.0,2117.0,1,2,5,choice,3,2,-1,-4.0,3,3,2,3,0.0,2,0.0,0.0,-0.14765534943640266
112,179,w9f6c077,Animal,1.0,1680.0,1,3,5,choice,1,1,5,5.0,3,3,1,1,5.0,10,5.0,5.0,0.6583791106800975
113,181,w5317a1b,Yellow,1.0,787.0,1,2,1,choice,2,2,5,9.0,4,4,2,2,9.0,5,9.0,9.0,1.3032066787732979
114,182,w5317a1b,Green,1.0,1327.0,0,3,1,choice,3,3,-3,0.0,4,4,2,2,4.0,-3,0.0,4.0,0.49717221865679745
115,183,w5317a1b,Food,1.0,2579.0,0,1,2,choice,3,2,-4,-4.0,5,5,2,2,2.0,-4,2.0,2.0,0.17475843461019738
116,184,w5317a1b,Scene,1.0,2775.0,1,2,2,choice,2,2,3,3.0,5,5,2,2,3.0,3,3.0,3.0,0.33596532663349743
117,186,w5317a1b,Animal,0.0,3479.0,1,1,3,choice,3,3,-1,-2.0,6,6,3,3,-2.0,-9,-2.0,-2.0,-0.4700691334830028
118,187,w5317a1b,Red,1.0,1443.0,1,2,3,choice,2,2,5,4.0,6,6,2,2,4.0,2,4.0,4.0,0.49717221865679745
119,188,w5317a1b,Blue,1.0,1032.0,0,3,3,choice,1,1,-5,-6.0,6,6,1,1,-6.0,-10,-6.0,-6.0,-1.1148967015762028
120,189,w5317a1b,Animal,1.0,1489.0,1,1,4,choice,1,1,5,3.0,5,5,1,2,3.0,10,3.0,3.0,0.33596532663349743
121,190,w5317a1b,Red,0.0,6801.0,0,2,4,choice,3,2,3,-2.0,5,5,3,3,-2.0,-6,-5.0,-5.0,-0.4700691334830028
122,191,w5317a1b,Food,1.0,3195.0,0,3,4,choice,2,2,-7,-7.0,5,5,2,2,-7.0,-15,-7.0,-7.0,-1.2761035935995029
123,194,w5317a1b,Scene,1.0,1036.0,0,3,5,choice,3,1,-3,8.0,4,4,3,3,8.0,7,8.0,8.0,1.1419997867499976
124,195,w4f4cbdd,Object,1.0,2754.0,0,1,1,choice,1,4,-5,5.0,5,5,1,1,5.0,-10,5.0,5.0,0.6583791106800975
125,196,w4f4cbdd,Green,1.0,2285.0,0,2,1,choice,3,4,-1,5.0,5,5,3,3,5.0,-8,5.0,5.0,0.6583791106800975
126,197,w4f4cbdd,Food,1.0,4352.0,1,3,1,choice,2,4,5,5.0,5,5,2,2,5.0,3,5.0,5.0,0.6583791106800975
127,198,w4f4cbdd,Red,1.0,2504.0,1,1,2,choice,3,1,5,22.0,5,5,2,2,16.0,-1,8.0,8.0,2.431654922936398
128,199,w4f4cbdd,Scene,1.0,2080.0,1,2,2,choice,2,2,3,3.0,5,5,2,2,3.0,3,3.0,3.0,0.33596532663349743
129,200,w4f4cbdd,Yellow,0.0,2512.0,1,3,2,choice,1,2,-7,-7.0,5,5,1,1,-7.0,-7,-7.0,-7.0,-1.2761035935995029
130,201,w4f4cbdd,Blue,1.0,4100.0,1,1,3,choice,3,1,2,10.0,3,3,1,1,8.0,-1,8.0,8.0,1.1419997867499976
131,202,w4f4cbdd,Yellow,1.0,1388.0,1,2,3,choice,2,2,4,16.0,3,3,1,2,8.0,-2,8.0,8.0,1.1419997867499976
132,204,w4f4cbdd,Scene,1.0,2612.0,1,1,4,choice,3,3,1,2.0,3,3,3,3,2.0,4,2.0,2.0,0.17475843461019738
133,206,w4f4cbdd,Red,0.0,1762.0,0,3,4,choice,1,1,3,8.0,3,3,1,1,8.0,6,8.0,8.0,1.1419997867499976
134,207,w4f4cbdd,Blue,1.0,2258.0,1,1,5,choice,2,1,1,0.0,5,5,1,1,4.0,8,4.0,4.0,0.49717221865679745
135,208,w4f4cbdd,Object,1.0,1703.0,1,2,5,choice,3,3,1,1.0,5,5,3,3,1.0,10,1.0,1.0,0.013551542586897376
136,209,w4f4cbdd,Green,1.0,1641.0,1,3,5,choice,1,1,5,5.0,5,5,1,1,5.0,10,5.0,5.0,0.6583791106800975
137,214,w4bdc2df,Scene,1.0,1155.0,0,2,2,choice,3,5,-5,-11.0,3,3,2,2,-11.0,-11,-4.0,-11.0,-1.920931161692703
138,216,w4bdc2df,Scene,1.0,2723.0,1,1,3,choice,1,3,6,0.0,2,2,1,2,0.0,12,1.0,1.0,-0.14765534943640266
139,217,w4bdc2df,Yellow,1.0,6768.0,1,2,3,choice,2,3,4,-4.0,2,2,1,1,0.0,4,4.0,8.0,-0.14765534943640266
140,218,w4bdc2df,Green,0.0,2302.0,0,3,3,choice,3,3,2,-8.0,2,2,1,1,0.0,12,1.0,1.0,-0.14765534943640266
141,224,w4bdc2df,Animal,0.0,1869.0,1,3,5,choice,2,1,-2,0.0,4,4,1,2,0.0,-9,1.0,1.0,-0.14765534943640266
142,225,wd071aa9,Yellow,1.0,1770.0,1,1,1,choice,3,2,2,5.0,5,5,3,3,5.0,-6,0.0,0.0,0.6583791106800975
143,226,wd071aa9,Animal,0.0,2416.0,1,2,1,choice,2,2,-5,-12.0,5,5,2,2,-12.0,-1,-12.0,-12.0,-2.082138053716003
144,227,wd071aa9,Object,1.0,2415.0,0,3,1,choice,1,1,-7,3.0,5,5,1,1,3.0,-14,3.0,3.0,0.33596532663349743
145,228,wd071aa9,Scene,0.0,1708.0,1,1,2,choice,2,3,-2,-3.0,4,4,2,3,-3.0,-2,-3.0,-3.0,-0.6312760255063028
146,229,wd071aa9,Food,0.0,3326.0,1,2,2,choice,3,3,-4,8.0,4,4,2,2,6.0,-4,8.0,6.0,0.8195860027033975
147,231,wd071aa9,Green,1.0,2457.0,1,1,3,choice,3,3,5,6.0,6,6,3,3,6.0,5,6.0,6.0,0.8195860027033975
148,232,wd071aa9,Blue,0.0,3198.0,1,2,3,choice,1,1,-7,-7.0,6,6,1,1,-7.0,-7,-7.0,-7.0,-1.2761035935995029
149,233,wd071aa9,Yellow,1.0,3017.0,0,3,3,choice,2,2,-1,6.0,6,6,2,2,6.0,-1,6.0,6.0,0.8195860027033975
150,234,wd071aa9,Blue,0.0,2318.0,0,1,4,choice,2,2,7,-9.0,4,4,1,1,-1.0,15,-9.0,-1.0,-0.3088622414597027
151,235,wd071aa9,Object,1.0,2257.0,1,2,4,choice,3,2,4,2.0,4,4,1,2,7.0,7,-1.0,7.0,0.9807928947266976
152,236,wd071aa9,Food,0.0,2775.0,1,3,4,choice,1,1,-7,3.0,4,4,1,1,3.0,-7,3.0,3.0,0.33596532663349743
153,237,wd071aa9,Scene,1.0,1136.0,1,1,5,choice,2,2,2,2.0,4,4,2,2,2.0,5,2.0,2.0,0.17475843461019738
154,238,wd071aa9,Green,0.0,3979.0,1,2,5,choice,1,2,-8,-8.0,4,4,1,1,-8.0,-8,-8.0,-8.0,-1.4373104856228027
155,239,wd071aa9,Red,1.0,1797.0,1,3,5,choice,3,2,1,11.0,4,4,1,2,3.0,6,3.0,3.0,0.33596532663349743
156,241,w8d56791,Yellow,,,0,2,1,choice,2,3,-1,10.0,4,4,2,2,10.0,-1,10.0,10.0,1.4644135707965977
157,242,w8d56791,Green,,,0,3,1,choice,3,3,-3,-17.0,4,4,2,2,-8.0,-3,-17.0,-8.0,-1.4373104856228027
158,244,w8d56791,Food,0.0,1048.0,0,2,2,choice,3,4,6,1.0,4,4,1,1,1.0,-1,-8.0,1.0,0.013551542586897376
159,245,w8d56791,Object,1.0,3736.0,0,3,2,choice,2,4,-1,-8.0,4,4,2,2,-8.0,-1,-8.0,-8.0,-1.4373104856228027
160,251,w8d56791,Object,1.0,2894.0,1,3,4,choice,3,4,1,9.0,2,2,2,2,10.0,-8,9.0,10.0,1.4644135707965977
161,252,w8d56791,Red,1.0,2511.0,1,1,5,choice,2,2,5,8.0,4,4,1,1,9.0,-4,9.0,9.0,1.3032066787732979
162,253,w8d56791,Animal,0.0,1766.0,1,2,5,choice,3,3,-6,9.0,4,4,1,1,1.0,-22,10.0,1.0,0.013551542586897376
163,254,w8d56791,Green,0.0,4433.0,1,3,5,choice,1,3,-7,1.0,4,4,1,1,1.0,-14,1.0,1.0,0.013551542586897376
164,255,wf93dad0,Object,1.0,6606.0,0,1,1,choice,1,1,-6,-2.0,4,4,1,1,-2.0,-6,-2.0,-2.0,-0.4700691334830028
165,256,wf93dad0,Animal,0.0,1301.0,0,2,1,choice,3,3,6,13.0,4,4,2,2,11.0,6,13.0,11.0,1.6256204628198978
166,257,wf93dad0,Food,1.0,2313.0,0,3,1,choice,2,1,-2,-9.0,4,4,1,1,-6.0,1,-6.0,-6.0,-1.1148967015762028
167,258,wf93dad0,Scene,1.0,2827.0,1,1,2,choice,2,2,1,9.0,5,5,2,2,9.0,4,9.0,9.0,1.3032066787732979
168,259,wf93dad0,Food,0.0,4803.0,1,2,2,choice,1,1,-7,4.0,5,5,1,1,4.0,-14,4.0,4.0,0.49717221865679745
169,260,wf93dad0,Yellow,1.0,1742.0,1,3,2,choice,3,2,1,16.0,5,5,2,2,10.0,-8,10.0,10.0,1.4644135707965977
170,261,wf93dad0,Red,1.0,1909.0,1,1,3,choice,1,1,7,6.0,5,5,1,1,6.0,7,6.0,6.0,0.8195860027033975
171,262,wf93dad0,Blue,0.0,1604.0,1,2,3,choice,3,3,-1,-10.0,5,5,3,3,-10.0,-1,-10.0,-10.0,-1.7597242696694029
172,263,wf93dad0,Green,0.0,2433.0,1,3,3,choice,2,2,-2,-4.0,5,5,1,1,-3.0,-2,-4.0,-3.0,-0.6312760255063028
173,264,wf93dad0,Blue,0.0,4829.0,1,1,4,choice,2,1,-8,-7.0,5,5,1,1,-1.0,1,-1.0,-1.0,-0.3088622414597027
174,265,wf93dad0,Red,1.0,1358.0,0,2,4,choice,3,3,-2,-1.0,5,5,3,3,-1.0,-2,-1.0,-1.0,-0.3088622414597027
175,266,wf93dad0,Green,1.0,3237.0,1,3,4,choice,1,1,6,4.0,5,5,1,1,4.0,6,4.0,4.0,0.49717221865679745
176,267,wf93dad0,Yellow,0.0,4384.0,0,1,5,choice,3,3,2,-3.0,4,4,2,2,-6.0,0,1.0,-2.0,-1.1148967015762028
177,269,wf93dad0,Object,0.0,3326.0,1,3,5,choice,1,1,-5,-6.0,4,4,1,1,-6.0,-10,-6.0,-6.0,-1.1148967015762028
178,270,wa797b6a,Green,,,0,1,1,choice,1,1,8,8.0,6,6,1,1,8.0,16,8.0,8.0,1.1419997867499976
179,271,wa797b6a,Blue,0.0,1609.0,1,2,1,choice,3,5,-1,-4.0,6,6,3,3,-4.0,-8,6.0,6.0,-0.7924829175296029
180,272,wa797b6a,Red,0.0,2805.0,1,3,1,choice,2,2,-2,-2.0,6,6,2,2,-2.0,-4,-2.0,-2.0,-0.4700691334830028
181,273,wa797b6a,Blue,0.0,5237.0,0,1,2,choice,3,3,3,-3.0,6,6,3,3,-3.0,-6,-3.0,-3.0,-0.6312760255063028
182,274,wa797b6a,Food,1.0,2984.0,0,2,2,choice,2,2,-3,-2.0,6,6,2,2,-2.0,-12,-2.0,-2.0,-0.4700691334830028
183,275,wa797b6a,Yellow,0.0,1895.0,1,3,2,choice,1,1,-2,-4.0,6,6,1,1,-4.0,-2,-4.0,-4.0,-0.7924829175296029
184,276,wa797b6a,Red,1.0,1771.0,1,1,3,choice,3,3,2,12.0,5,5,3,3,12.0,5,12.0,12.0,1.7868273548431979
185,277,wa797b6a,Animal,,,0,2,3,choice,1,2,3,5.0,5,5,1,2,5.0,6,5.0,5.0,0.6583791106800975
186,278,wa797b6a,Yellow,1.0,4207.0,0,3,3,choice,2,2,-2,-2.0,5,5,2,2,-2.0,-2,-2.0,-2.0,-0.4700691334830028
187,279,wa797b6a,Food,1.0,4289.0,0,1,4,choice,1,1,-7,5.0,6,6,1,1,5.0,-7,5.0,5.0,0.6583791106800975
188,280,wa797b6a,Scene,1.0,1854.0,1,2,4,choice,3,3,1,8.0,6,6,3,3,8.0,1,8.0,8.0,1.1419997867499976
189,281,wa797b6a,Animal,0.0,1355.0,1,3,4,choice,2,2,-3,-5.0,6,6,2,2,-5.0,-3,-5.0,-5.0,-0.9536898095529028
190,282,wa797b6a,Scene,0.0,2264.0,1,1,5,choice,2,2,-6,-4.0,6,6,2,2,-4.0,-3,-4.0,-4.0,-0.7924829175296029
191,283,wa797b6a,Green,1.0,711.0,1,2,5,choice,3,3,2,4.0,6,6,3,3,4.0,10,4.0,4.0,0.49717221865679745
192,284,wa797b6a,Object,1.0,700.0,1,3,5,choice,1,1,5,4.0,6,6,1,1,4.0,10,4.0,4.0,0.49717221865679745
193,285,w7cfc37e,Object,1.0,6678.0,0,1,2,choice,3,3,-1,0.0,4,4,2,2,0.0,-5,13.0,10.0,-0.14765534943640266
194,286,w7cfc37e,Blue,0.0,3674.0,1,2,2,choice,1,3,-4,0.0,4,4,1,1,0.0,-8,5.0,5.0,-0.14765534943640266
195,287,w7cfc37e,Animal,1.0,1099.0,0,3,2,choice,2,4,-7,-3.0,4,4,1,1,0.0,-7,-2.0,1.0,-0.14765534943640266
196,288,w7cfc37e,Yellow,1.0,2514.0,1,1,3,choice,2,2,1,0.0,3,3,1,1,0.0,4,3.0,3.0,-0.14765534943640266
197,289,w7cfc37e,Blue,0.0,2384.0,0,2,3,choice,3,3,4,-8.0,3,3,1,1,-8.0,4,-1.0,-8.0,-1.4373104856228027
198,291,w7cfc37e,Green,1.0,2129.0,0,1,4,choice,2,3,-6,0.0,3,3,2,2,0.0,-6,9.0,9.0,-0.14765534943640266
199,293,w7cfc37e,Yellow,0.0,1545.0,1,3,4,choice,3,3,-1,0.0,3,3,1,1,0.0,5,10.0,7.0,-0.14765534943640266
200,294,w7cfc37e,Animal,0.0,4521.0,0,1,5,choice,1,4,9,-9.0,3,3,1,1,-9.0,9,-9.0,-9.0,-1.5985173776461028
201,295,w7cfc37e,Scene,1.0,2130.0,0,2,5,choice,3,2,-5,-3.0,3,3,2,2,0.0,1,14.0,14.0,-0.14765534943640266
202,297,w797a1e5,Red,0.0,7391.0,1,1,1,choice,3,2,-1,-1.0,6,6,3,3,-1.0,-2,3.0,3.0,-0.3088622414597027
203,298,w797a1e5,Food,,,0,2,1,choice,2,4,-2,-2.0,6,6,2,2,-2.0,-7,-2.0,-2.0,-0.4700691334830028
204,299,w797a1e5,Green,1.0,2630.0,1,3,1,choice,1,4,9,9.0,6,6,1,1,9.0,9,9.0,9.0,1.3032066787732979
205,300,w797a1e5,Green,1.0,4768.0,1,1,2,choice,2,2,3,3.0,6,6,2,2,3.0,0,3.0,3.0,0.33596532663349743
206,301,w797a1e5,Object,,,0,2,2,choice,3,3,-1,-1.0,6,6,3,3,-1.0,-4,-1.0,-1.0,-0.3088622414597027
207,302,w797a1e5,Animal,0.0,1489.0,0,3,2,choice,1,2,5,5.0,6,6,1,1,5.0,5,5.0,5.0,0.6583791106800975
208,303,w797a1e5,Scene,1.0,4802.0,0,1,3,choice,2,2,-1,-1.0,6,6,2,2,-1.0,-5,-1.0,-1.0,-0.3088622414597027
209,304,w797a1e5,Blue,1.0,3905.0,1,2,3,choice,1,1,2,2.0,6,6,1,1,2.0,2,2.0,2.0,0.17475843461019738
210,305,w797a1e5,Yellow,0.0,6258.0,1,3,3,choice,3,3,-1,-1.0,6,6,3,3,-1.0,-5,-1.0,-1.0,-0.3088622414597027
211,306,w797a1e5,Object,,,0,1,4,choice,3,2,1,-2.0,6,6,3,3,-2.0,1,6.0,6.0,-0.4700691334830028
212,307,w797a1e5,Scene,1.0,3779.0,1,2,4,choice,2,3,4,4.0,6,6,2,2,4.0,4,4.0,4.0,0.49717221865679745
213,308,w797a1e5,Yellow,0.0,4292.0,1,3,4,choice,1,1,-8,-8.0,6,6,1,1,-8.0,-8,-8.0,-8.0,-1.4373104856228027
214,309,w797a1e5,Food,0.0,4678.0,0,1,5,choice,2,2,2,2.0,6,6,2,2,2.0,2,2.0,2.0,0.17475843461019738
215,311,w797a1e5,Animal,1.0,3485.0,0,3,5,choice,3,2,-1,-2.0,6,6,3,3,-2.0,-5,-6.0,-6.0,-0.4700691334830028
216,342,we6aff32,Scene,0.0,2439.0,1,1,1,choice,2,2,-3,-4.0,2,2,1,2,-4.0,-12,-4.0,-4.0,-0.7924829175296029
217,344,we6aff32,Yellow,0.0,3841.0,1,3,1,choice,3,2,-3,-8.0,2,2,2,2,-8.0,-16,-8.0,-8.0,-1.4373104856228027
218,345,we6aff32,Yellow,,,0,1,2,choice,2,2,1,1.0,6,6,2,2,1.0,9,1.0,1.0,0.013551542586897376
219,346,we6aff32,Object,1.0,2771.0,0,2,2,choice,3,3,-1,0.0,6,6,3,3,0.0,2,0.0,0.0,-0.14765534943640266
220,347,we6aff32,Red,1.0,1834.0,0,3,2,choice,1,1,-5,-5.0,6,6,1,1,-5.0,-10,-5.0,-5.0,-0.9536898095529028
221,348,we6aff32,Food,1.0,1242.0,0,1,3,choice,2,2,-2,-3.0,4,4,2,2,-3.0,-2,-3.0,-3.0,-0.6312760255063028
222,349,we6aff32,Green,1.0,5043.0,0,2,3,choice,1,1,-3,0.0,4,4,1,1,0.0,-6,0.0,0.0,-0.14765534943640266
223,350,we6aff32,Animal,1.0,2065.0,0,3,3,choice,3,2,-1,7.0,4,4,2,2,3.0,-2,3.0,3.0,0.33596532663349743
224,351,we6aff32,Scene,0.0,1788.0,0,1,4,choice,3,2,1,4.0,2,2,2,2,4.0,-2,4.0,4.0,0.49717221865679745
225,354,we6aff32,Red,0.0,6109.0,1,1,5,choice,3,2,-1,11.0,5,5,2,2,3.0,5,3.0,3.0,0.33596532663349743
226,355,we6aff32,Green,1.0,1281.0,1,2,5,choice,1,1,9,-4.0,5,5,1,1,-4.0,9,-4.0,-4.0,-0.7924829175296029
227,356,we6aff32,Blue,1.0,2686.0,0,3,5,choice,2,2,-2,6.0,5,5,2,2,6.0,-2,6.0,6.0,0.8195860027033975
228,357,w6b34a8b,Blue,1.0,1843.0,0,1,1,choice,3,8,-3,-9.0,4,4,2,2,-2.0,-1,10.0,7.0,-0.4700691334830028
229,358,w6b34a8b,Green,0.0,2243.0,1,2,1,choice,2,2,-4,5.0,4,4,1,1,2.0,-8,5.0,2.0,0.17475843461019738
230,359,w6b34a8b,Object,1.0,1184.0,0,3,1,choice,1,4,-4,-5.0,4,4,1,1,-5.0,-8,-5.0,-5.0,-0.9536898095529028
231,360,w6b34a8b,Scene,1.0,1909.0,1,1,2,choice,1,1,8,5.0,4,4,1,1,5.0,16,5.0,5.0,0.6583791106800975
232,361,w6b34a8b,Object,1.0,888.0,0,2,2,choice,3,4,-2,9.0,4,4,2,2,12.0,-7,5.0,5.0,1.7868273548431979
233,365,w6b34a8b,Red,0.0,691.0,0,3,3,choice,3,2,1,11.0,3,3,2,3,7.0,-5,7.0,7.0,0.9807928947266976
234,366,w6b34a8b,Red,0.0,1184.0,1,1,4,choice,1,2,-9,-9.0,3,3,1,3,-9.0,-18,-9.0,-9.0,-1.5985173776461028
235,367,w6b34a8b,Food,1.0,1196.0,1,2,4,choice,3,2,3,-10.0,3,3,1,1,-9.0,-11,-12.0,-9.0,-1.5985173776461028
236,368,w6b34a8b,Scene,1.0,869.0,1,3,4,choice,2,2,2,-8.0,3,3,1,3,-3.0,4,-3.0,-3.0,-0.6312760255063028
237,371,w6b34a8b,Blue,0.0,732.0,1,3,5,choice,3,2,-1,2.0,4,4,1,1,7.0,-7,5.0,7.0,0.9807928947266976
238,372,w3946928,Green,1.0,2740.0,1,1,1,choice,1,1,6,5.0,5,5,1,1,5.0,6,5.0,5.0,0.6583791106800975
239,373,w3946928,Blue,0.0,2840.0,1,2,1,choice,2,2,-1,-2.0,5,5,2,2,-2.0,-1,-2.0,-2.0,-0.4700691334830028
240,374,w3946928,Yellow,0.0,2282.0,1,3,1,choice,3,1,-6,-9.0,5,5,2,2,-15.0,-8,-8.0,-8.0,-2.565758729785903
241,375,w3946928,Animal,1.0,3621.0,1,1,2,choice,1,2,6,-6.0,2,2,1,2,-6.0,12,-6.0,-6.0,-1.1148967015762028
242,377,w3946928,Red,1.0,1570.0,0,3,2,choice,3,2,-2,-6.0,2,2,2,2,-12.0,7,-12.0,-12.0,-2.082138053716003
243,378,w3946928,Object,1.0,6639.0,1,1,3,choice,2,1,5,1.0,4,4,1,1,-3.0,-2,-3.0,-3.0,-0.6312760255063028
244,379,w3946928,Scene,1.0,1195.0,1,2,3,choice,1,3,4,4.0,4,4,1,1,4.0,4,4.0,4.0,0.49717221865679745
245,380,w3946928,Food,1.0,1678.0,0,3,3,choice,3,3,-2,-5.0,4,4,2,3,2.0,6,2.0,2.0,0.17475843461019738
246,381,w3946928,Animal,1.0,1684.0,0,1,4,choice,3,2,-1,-4.0,2,2,1,1,7.0,2,1.0,7.0,0.9807928947266976
247,383,w3946928,Scene,1.0,1161.0,0,3,4,choice,2,1,-1,7.0,2,2,1,1,3.0,-5,3.0,3.0,0.33596532663349743
248,385,w3946928,Red,1.0,2320.0,1,2,5,choice,1,1,3,3.0,3,3,1,1,3.0,3,3.0,3.0,0.33596532663349743
249,386,w3946928,Blue,0.0,820.0,1,3,5,choice,3,1,-1,15.0,3,3,1,1,4.0,-2,4.0,4.0,0.49717221865679745
250,387,w04c1659,Blue,1.0,2806.0,1,1,1,choice,2,3,5,9.0,5,5,2,2,9.0,10,9.0,9.0,1.3032066787732979
251,388,w04c1659,Red,0.0,4269.0,0,2,1,choice,3,5,3,-1.0,5,5,3,3,-1.0,-3,-1.0,5.0,-0.3088622414597027
252,390,w04c1659,Food,0.0,4044.0,0,1,2,choice,3,6,2,17.0,3,3,2,2,8.0,6,22.0,8.0,1.1419997867499976
253,393,w04c1659,Green,1.0,3332.0,0,1,3,choice,3,2,-3,10.0,4,4,3,3,10.0,-7,1.0,1.0,1.4644135707965977
254,394,w04c1659,Object,0.0,6681.0,0,2,3,choice,2,3,3,6.0,4,4,1,1,9.0,3,6.0,9.0,1.3032066787732979
255,395,w04c1659,Scene,1.0,1293.0,0,3,3,choice,1,1,-4,8.0,4,4,1,1,8.0,-8,8.0,8.0,1.1419997867499976
256,396,w04c1659,Food,1.0,2629.0,1,1,4,choice,3,3,2,-5.0,5,5,2,2,1.0,8,-5.0,1.0,0.013551542586897376
257,397,w04c1659,Green,1.0,1582.0,0,2,4,choice,2,2,-2,1.0,5,5,1,1,7.0,-2,7.0,7.0,0.9807928947266976
258,398,w04c1659,Blue,0.0,896.0,0,3,4,choice,1,1,6,-3.0,5,5,1,1,-3.0,12,-3.0,-3.0,-0.6312760255063028
259,399,w04c1659,Animal,1.0,3591.0,1,1,5,choice,3,3,1,3.0,5,5,2,3,-2.0,-3,-2.0,-2.0,-0.4700691334830028
260,400,w04c1659,Scene,1.0,5531.0,1,2,5,choice,2,1,4,-2.0,5,5,2,2,-2.0,-2,-8.0,-8.0,-0.4700691334830028
261,402,wcbfad8c,Animal,1.0,4051.0,1,1,1,choice,2,2,6,7.0,3,3,2,2,7.0,3,7.0,7.0,0.9807928947266976
262,403,wcbfad8c,Yellow,0.0,1272.0,1,2,1,choice,3,1,-2,8.0,3,3,1,1,3.0,-6,3.0,3.0,0.33596532663349743
263,405,wcbfad8c,Red,0.0,3122.0,1,1,2,choice,3,2,-2,11.0,5,5,3,3,11.0,-7,6.0,6.0,1.6256204628198978
264,406,wcbfad8c,Blue,1.0,4079.0,0,2,2,choice,2,1,-6,5.0,5,5,1,1,3.0,2,3.0,3.0,0.33596532663349743
265,407,wcbfad8c,Green,1.0,836.0,1,3,2,choice,1,1,9,9.0,5,5,1,1,9.0,9,9.0,9.0,1.3032066787732979
266,408,wcbfad8c,Scene,0.0,3733.0,0,1,3,choice,3,1,3,0.0,1,1,1,1,4.0,6,4.0,4.0,0.49717221865679745
267,412,wcbfad8c,Yellow,0.0,1889.0,1,2,4,choice,2,1,-3,2.0,2,2,1,1,2.0,2,2.0,2.0,0.17475843461019738
268,413,wcbfad8c,Object,1.0,2746.0,0,3,4,choice,3,1,-2,13.0,2,2,1,1,9.0,9,9.0,9.0,1.3032066787732979
269,414,wcbfad8c,Food,0.0,2362.0,0,1,5,choice,2,1,1,11.0,4,4,2,2,11.0,-7,2.0,2.0,1.6256204628198978
270,416,wcbfad8c,Scene,1.0,2039.0,0,3,5,choice,1,1,-5,4.0,4,4,1,1,4.0,-5,4.0,4.0,0.49717221865679745
271,418,wab2e8f4,Object,1.0,4541.0,1,2,1,choice,3,2,4,-6.0,2,2,1,1,-7.0,6,-1.0,-7.0,-1.2761035935995029
272,419,wab2e8f4,Food,1.0,3068.0,1,3,1,choice,2,1,3,15.0,2,2,1,1,9.0,9,9.0,9.0,1.3032066787732979
273,420,wab2e8f4,Yellow,0.0,1624.0,0,1,2,choice,3,2,1,4.0,5,5,3,3,4.0,8,10.0,10.0,0.49717221865679745
274,421,wab2e8f4,Blue,1.0,1253.0,1,2,2,choice,2,2,1,15.0,5,5,1,1,9.0,1,15.0,9.0,1.3032066787732979
275,422,wab2e8f4,Red,0.0,2315.0,1,3,2,choice,1,1,-6,8.0,5,5,1,1,8.0,-6,8.0,8.0,1.1419997867499976
276,423,wab2e8f4,Blue,1.0,2668.0,1,1,3,choice,2,2,1,-10.0,4,4,2,3,-10.0,-4,-5.0,-5.0,-1.7597242696694029
277,424,wab2e8f4,Scene,0.0,3749.0,1,2,3,choice,1,2,-3,6.0,4,4,1,2,6.0,-3,6.0,6.0,0.8195860027033975
278,426,wab2e8f4,Food,1.0,1773.0,1,1,4,choice,1,1,2,3.0,5,5,1,1,3.0,2,3.0,3.0,0.33596532663349743
279,427,wab2e8f4,Animal,0.0,2668.0,1,2,4,choice,3,2,-1,-7.0,5,5,2,2,-11.0,5,-11.0,-11.0,-1.920931161692703
280,428,wab2e8f4,Scene,0.0,1834.0,0,3,4,choice,2,2,2,-9.0,5,5,2,2,-9.0,2,-9.0,-9.0,-1.5985173776461028
281,431,wab2e8f4,Red,1.0,2352.0,1,3,5,choice,3,3,5,12.0,3,3,2,2,7.0,-3,18.0,13.0,0.9807928947266976
282,432,w192a97f,Red,0.0,4222.0,1,1,1,choice,3,4,-4,-25.0,4,4,1,1,-9.0,3,-16.0,-9.0,-1.5985173776461028
283,433,w192a97f,Yellow,1.0,1904.0,0,2,1,choice,2,4,-2,7.0,4,4,2,2,7.0,-2,7.0,7.0,0.9807928947266976
284,434,w192a97f,Green,1.0,1643.0,1,3,1,choice,1,4,8,-3.0,4,4,1,1,-3.0,8,-3.0,-3.0,-0.6312760255063028
285,435,w192a97f,Food,1.0,5246.0,0,1,2,choice,2,2,-4,0.0,5,5,1,1,5.0,-4,0.0,5.0,0.6583791106800975
286,436,w192a97f,Object,0.0,3996.0,1,2,2,choice,3,3,-1,-9.0,5,5,3,3,-13.0,-1,-9.0,-9.0,-2.243344945739303
287,438,w192a97f,Blue,0.0,4836.0,1,1,3,choice,2,2,-7,-11.0,6,6,2,2,-11.0,-7,-11.0,-11.0,-1.920931161692703
288,439,w192a97f,Animal,0.0,5052.0,1,2,3,choice,1,1,-3,3.0,6,6,1,1,3.0,-6,3.0,3.0,0.33596532663349743
289,440,w192a97f,Yellow,1.0,1606.0,0,3,3,choice,3,3,-2,4.0,6,6,3,3,4.0,-5,4.0,4.0,0.49717221865679745
290,441,w192a97f,Animal,0.0,5115.0,1,1,4,choice,2,2,-2,-1.0,5,5,1,1,-5.0,-2,-1.0,-5.0,-0.9536898095529028
291,442,w192a97f,Food,1.0,2236.0,0,2,4,choice,1,1,-5,-5.0,5,5,1,2,-5.0,-5,-5.0,-5.0,-0.9536898095529028
292,443,w192a97f,Scene,0.0,1669.0,0,3,4,choice,3,3,2,-8.0,5,5,3,3,-8.0,2,-8.0,-8.0,-1.4373104856228027
293,444,w192a97f,Red,,,0,1,5,choice,2,2,-4,-4.0,6,6,2,2,-4.0,-4,-4.0,-4.0,-0.7924829175296029
294,445,w192a97f,Green,1.0,236.0,1,2,5,choice,1,1,9,9.0,6,6,1,1,9.0,9,9.0,9.0,1.3032066787732979
295,446,w192a97f,Blue,0.0,643.0,1,3,5,choice,3,3,-2,-3.0,6,6,3,3,-3.0,-2,-3.0,-3.0,-0.6312760255063028
296,447,web7e878,Object,1.0,4337.0,1,1,1,choice,3,4,6,12.0,2,2,1,1,8.0,-2,11.0,8.0,1.1419997867499976
297,451,web7e878,Yellow,1.0,6014.0,1,2,2,choice,2,1,6,18.0,2,2,1,1,9.0,-3,9.0,9.0,1.3032066787732979
298,452,web7e878,Green,0.0,3044.0,1,3,2,choice,1,2,-6,-3.0,2,2,1,2,-3.0,-6,-3.0,-3.0,-0.6312760255063028
299,453,web7e878,Object,0.0,4246.0,1,1,3,choice,1,1,-9,2.0,3,3,1,1,2.0,-9,2.0,2.0,0.17475843461019738
300,454,web7e878,Blue,1.0,1538.0,0,2,3,choice,2,1,-2,0.0,3,3,1,1,3.0,5,3.0,3.0,0.33596532663349743
301,455,web7e878,Green,1.0,3599.0,1,3,3,choice,3,3,2,10.0,3,3,2,3,10.0,2,8.0,8.0,1.4644135707965977
302,456,web7e878,Blue,0.0,3741.0,1,1,4,choice,2,2,-1,-11.0,3,3,1,1,-3.0,-1,-11.0,-3.0,-0.6312760255063028
303,457,web7e878,Food,1.0,3996.0,0,2,4,choice,1,1,-5,6.0,3,3,1,1,6.0,-10,6.0,6.0,0.8195860027033975
304,458,web7e878,Yellow,1.0,975.0,1,3,4,choice,3,2,2,17.0,3,3,2,2,14.0,-7,14.0,14.0,2.109241138889798
305,460,web7e878,Scene,1.0,921.0,1,2,5,choice,2,3,2,17.0,2,2,2,3,17.0,2,17.0,17.0,2.592861814959698
306,463,wf1ea1db,Yellow,0.0,1082.0,1,2,1,choice,3,6,-4,-10.0,1,1,1,1,-2.0,4,-16.0,-2.0,-0.4700691334830028
307,465,wf1ea1db,Scene,1.0,2313.0,1,1,5,choice,1,3,4,2.0,1,1,1,1,2.0,8,2.0,2.0,0.17475843461019738
308,467,wf1ea1db,Red,1.0,2127.0,1,3,5,choice,3,2,3,10.0,1,1,1,1,2.0,7,8.0,2.0,0.17475843461019738
309,475,w2d4c98d,Object,1.0,4021.0,0,2,1,choice,3,4,-1,0.0,6,6,3,3,0.0,-4,24.0,24.0,-0.14765534943640266
310,476,w2d4c98d,Red,0.0,6582.0,1,3,1,choice,2,4,-2,0.0,6,6,2,2,0.0,-5,16.0,16.0,-0.14765534943640266
311,477,w2d4c98d,Animal,1.0,3088.0,1,1,2,choice,1,4,4,4.0,6,6,1,1,4.0,8,4.0,4.0,0.49717221865679745
312,478,w2d4c98d,Blue,1.0,4275.0,1,2,2,choice,3,4,2,18.0,6,6,2,2,9.0,11,18.0,9.0,1.3032066787732979
313,479,w2d4c98d,Scene,0.0,2460.0,1,3,2,choice,2,4,-1,-1.0,6,6,2,2,-1.0,4,-1.0,-1.0,-0.3088622414597027
314,480,w2d4c98d,Green,0.0,5221.0,1,1,3,choice,1,3,-5,-5.0,6,6,1,1,-5.0,-5,-5.0,-5.0,-0.9536898095529028
315,481,w2d4c98d,Animal,1.0,3661.0,1,2,3,choice,2,4,6,6.0,6,6,2,2,6.0,13,6.0,6.0,0.8195860027033975
316,482,w2d4c98d,Yellow,1.0,2194.0,1,3,3,choice,3,4,3,3.0,6,6,3,3,3.0,10,3.0,3.0,0.33596532663349743
317,483,w2d4c98d,Yellow,1.0,3984.0,0,1,4,choice,2,4,-5,-5.0,6,6,2,2,-5.0,-5,-5.0,-5.0,-0.9536898095529028
318,484,w2d4c98d,Red,0.0,5507.0,1,2,4,choice,3,4,-1,-1.0,6,6,3,3,-1.0,-3,-1.0,-1.0,-0.3088622414597027
319,485,w2d4c98d,Food,0.0,3802.0,1,3,4,choice,1,3,-2,-2.0,6,6,1,1,-2.0,-4,-2.0,-2.0,-0.4700691334830028
320,486,w2d4c98d,Scene,0.0,5503.0,1,1,5,choice,3,4,-1,-1.0,6,6,3,3,-1.0,-1,-1.0,-1.0,-0.3088622414597027
321,487,w2d4c98d,Object,1.0,7059.0,1,2,5,choice,1,4,6,8.0,6,6,1,1,8.0,6,8.0,8.0,1.1419997867499976
322,488,w2d4c98d,Food,0.0,4758.0,1,3,5,choice,2,4,-8,-7.0,6,6,2,2,-7.0,-8,-7.0,-7.0,-1.2761035935995029
323,504,w608e33c,Scene,1.0,5527.0,1,1,1,choice,1,2,7,-7.0,4,4,1,2,-7.0,14,-7.0,-7.0,-1.2761035935995029
324,505,w608e33c,Animal,1.0,5267.0,0,2,1,choice,2,2,-4,0.0,4,4,1,1,1.0,-9,0.0,1.0,0.013551542586897376
325,506,w608e33c,Red,0.0,4104.0,1,3,1,choice,3,3,-2,-4.0,4,4,2,2,-3.0,0,-4.0,-3.0,-0.6312760255063028
326,507,w608e33c,Green,,,0,1,2,choice,2,2,8,8.0,6,6,2,2,8.0,17,8.0,8.0,1.1419997867499976
327,508,w608e33c,Food,0.0,3716.0,1,2,2,choice,3,3,-4,11.0,6,6,3,3,11.0,5,11.0,11.0,1.6256204628198978
328,509,w608e33c,Object,0.0,2431.0,0,3,2,choice,1,1,5,-5.0,6,6,1,1,-5.0,5,-5.0,-5.0,-0.9536898095529028
329,510,w608e33c,Food,1.0,2764.0,1,1,3,choice,1,2,8,8.0,5,5,1,1,8.0,8,8.0,8.0,1.1419997867499976
330,511,w608e33c,Animal,0.0,2877.0,1,2,3,choice,3,2,-3,-11.0,5,5,2,2,-4.0,-1,-4.0,-4.0,-0.7924829175296029
331,512,w608e33c,Red,0.0,3069.0,1,3,3,choice,2,2,-2,-2.0,5,5,2,2,-2.0,-7,-2.0,-2.0,-0.4700691334830028
332,513,w608e33c,Green,0.0,4926.0,0,1,4,choice,1,1,3,3.0,4,4,1,2,3.0,3,3.0,3.0,0.33596532663349743
333,514,w608e33c,Scene,1.0,2355.0,0,2,4,choice,2,3,-3,-4.0,4,4,2,3,-4.0,-7,-4.0,-4.0,-0.7924829175296029
334,515,w608e33c,Blue,1.0,1669.0,0,3,4,choice,3,2,-1,7.0,4,4,2,2,2.0,-13,2.0,2.0,0.17475843461019738
335,516,w608e33c,Yellow,1.0,4292.0,1,1,5,choice,3,2,1,-26.0,5,5,2,2,-17.0,-5,-17.0,-8.0,-2.888172513832503
336,517,w608e33c,Object,1.0,4539.0,1,2,5,choice,2,1,5,-3.0,5,5,2,2,-3.0,-1,6.0,6.0,-0.6312760255063028
337,518,w608e33c,Blue,0.0,2562.0,1,3,5,choice,1,1,-5,-5.0,5,5,1,1,-5.0,-5,-5.0,-5.0,-0.9536898095529028
338,519,w91e953e,Animal,1.0,2480.0,0,1,1,choice,1,3,-5,-5.0,4,4,1,1,-5.0,-5,-5.0,-5.0,-0.9536898095529028
339,520,w91e953e,Scene,1.0,1517.0,0,2,1,choice,2,3,-2,3.0,4,4,1,2,-2.0,-2,3.0,-2.0,-0.4700691334830028
340,521,w91e953e,Food,0.0,1439.0,0,3,1,choice,3,3,4,-2.0,4,4,2,2,-5.0,4,-2.0,-5.0,-0.9536898095529028
341,522,w91e953e,Red,0.0,5383.0,1,1,2,choice,3,2,-1,2.0,4,4,2,2,4.0,-8,-3.0,-3.0,0.49717221865679745
342,524,w91e953e,Green,1.0,2389.0,1,3,2,choice,2,2,1,10.0,4,4,2,2,10.0,1,10.0,10.0,1.4644135707965977
343,525,w91e953e,Yellow,0.0,4455.0,0,1,3,choice,2,2,4,4.0,5,5,2,2,4.0,4,4.0,4.0,0.49717221865679745
344,526,w91e953e,Food,1.0,5321.0,0,2,3,choice,1,2,-7,-7.0,5,5,1,1,-7.0,-14,-7.0,-7.0,-1.2761035935995029
345,527,w91e953e,Blue,0.0,747.0,0,3,3,choice,3,2,2,-15.0,5,5,2,2,-10.0,-10,-10.0,-10.0,-1.7597242696694029
346,528,w91e953e,Blue,0.0,2997.0,1,1,4,choice,1,1,-3,-3.0,6,6,1,1,-3.0,-3,-3.0,-3.0,-0.6312760255063028
347,529,w91e953e,Green,0.0,3481.0,0,2,4,choice,3,3,3,3.0,6,6,3,3,3.0,3,3.0,3.0,0.33596532663349743
348,530,w91e953e,Yellow,1.0,3744.0,1,3,4,choice,2,2,3,3.0,6,6,2,2,3.0,3,3.0,3.0,0.33596532663349743
349,531,w91e953e,Object,1.0,4395.0,1,1,5,choice,3,3,2,2.0,6,6,3,3,2.0,-5,2.0,2.0,0.17475843461019738
350,532,w91e953e,Red,1.0,3688.0,1,2,5,choice,2,2,1,1.0,6,6,2,2,1.0,-6,1.0,1.0,0.013551542586897376
351,533,w91e953e,Animal,0.0,4190.0,1,3,5,choice,1,1,-5,-5.0,6,6,1,1,-5.0,-5,-5.0,-5.0,-0.9536898095529028
352,534,w8ad52eb,Red,0.0,6882.0,0,1,1,choice,3,2,4,4.0,5,5,2,2,1.0,6,6.0,6.0,0.013551542586897376
353,535,w8ad52eb,Blue,1.0,4156.0,0,2,1,choice,1,2,-8,-8.0,5,5,1,2,-8.0,-8,-8.0,-8.0,-1.4373104856228027
354,536,w8ad52eb,Animal,0.0,2316.0,1,3,1,choice,2,2,-4,-6.0,5,5,1,2,-9.0,-9,-9.0,-9.0,-1.5985173776461028
355,537,w8ad52eb,Green,1.0,4349.0,1,1,2,choice,1,1,3,0.0,4,4,1,2,0.0,6,0.0,0.0,-0.14765534943640266
356,538,w8ad52eb,Scene,1.0,4473.0,1,2,2,choice,3,3,1,-4.0,4,4,2,3,-4.0,2,-4.0,-4.0,-0.7924829175296029
357,539,w8ad52eb,Object,0.0,3902.0,0,3,2,choice,2,1,1,4.0,4,4,1,1,4.0,-8,4.0,4.0,0.49717221865679745
358,540,w8ad52eb,Yellow,1.0,3087.0,0,1,3,choice,3,1,-1,4.0,2,2,2,3,6.0,8,8.0,8.0,0.8195860027033975
359,544,w8ad52eb,Object,0.0,6278.0,0,2,4,choice,3,1,2,8.0,2,2,1,1,3.0,3,3.0,3.0,0.33596532663349743
360,549,w13816ba,Object,0.0,7455.0,1,1,1,choice,1,1,-9,-9.0,6,6,1,1,-9.0,-9,-9.0,-9.0,-1.5985173776461028
361,550,w13816ba,Scene,1.0,1830.0,1,2,1,choice,3,3,3,5.0,6,6,3,3,5.0,3,5.0,5.0,0.6583791106800975
362,551,w13816ba,Food,1.0,1485.0,1,3,1,choice,2,2,3,3.0,6,6,2,2,3.0,3,3.0,3.0,0.33596532663349743
363,552,w13816ba,Object,1.0,4550.0,0,1,2,choice,3,1,-1,-2.0,5,5,2,2,7.0,-4,-2.0,-2.0,0.9807928947266976
364,556,w13816ba,Yellow,1.0,5307.0,0,2,3,choice,3,2,-2,0.0,5,5,3,3,0.0,4,5.0,5.0,-0.14765534943640266
365,557,w13816ba,Red,1.0,3139.0,1,3,3,choice,1,1,9,9.0,5,5,1,1,9.0,9,9.0,9.0,1.3032066787732979
366,558,w13816ba,Blue,1.0,5770.0,1,1,4,choice,3,1,1,-3.0,6,6,3,3,-3.0,5,5.0,5.0,-0.6312760255063028
367,559,w13816ba,Yellow,1.0,4457.0,1,2,4,choice,2,2,3,4.0,6,6,2,2,4.0,3,4.0,4.0,0.49717221865679745
368,561,w13816ba,Green,1.0,4099.0,1,1,5,choice,3,2,5,6.0,4,4,2,2,14.0,12,14.0,14.0,2.109241138889798
369,562,w13816ba,Animal,1.0,6026.0,1,2,5,choice,1,1,7,9.0,4,4,1,1,9.0,14,9.0,9.0,1.3032066787732979
370,563,w13816ba,Scene,0.0,6109.0,1,3,5,choice,2,2,-6,-5.0,4,4,1,1,3.0,-6,-5.0,3.0,0.33596532663349743
371,564,w5ef243f,Object,,,0,1,1,choice,2,2,5,3.0,5,5,1,1,-3.0,11,3.0,-3.0,-0.6312760255063028
372,565,w5ef243f,Red,1.0,2870.0,0,2,1,choice,1,1,-7,6.0,5,5,1,1,6.0,-7,6.0,6.0,0.8195860027033975
373,566,w5ef243f,Yellow,0.0,3378.0,0,3,1,choice,3,3,1,-7.0,5,5,3,3,-7.0,7,-7.0,-7.0,-1.2761035935995029
374,567,w5ef243f,Red,1.0,4437.0,0,1,2,choice,3,3,-4,-9.0,5,5,2,3,-2.0,-4,0.0,7.0,-0.4700691334830028
375,568,w5ef243f,Object,0.0,3691.0,0,2,2,choice,2,1,2,-14.0,5,5,1,1,-7.0,2,-7.0,-7.0,-1.2761035935995029
376,569,w5ef243f,Animal,1.0,3986.0,0,3,2,choice,1,1,-5,-9.0,5,5,1,1,-9.0,-5,-9.0,-9.0,-1.5985173776461028
377,570,w5ef243f,Green,1.0,1702.0,0,1,3,choice,3,3,-3,21.0,5,5,2,2,17.0,-9,21.0,17.0,2.592861814959698
378,571,w5ef243f,Blue,1.0,2935.0,1,2,3,choice,1,1,5,7.0,5,5,1,1,7.0,5,7.0,7.0,0.9807928947266976
379,572,w5ef243f,Scene,1.0,2007.0,1,3,3,choice,2,2,2,5.0,5,5,2,2,5.0,-4,5.0,5.0,0.6583791106800975
380,573,w5ef243f,Food,1.0,2985.0,1,1,4,choice,1,2,9,3.0,2,2,1,2,3.0,18,3.0,3.0,0.33596532663349743
381,574,w5ef243f,Yellow,0.0,2262.0,1,2,4,choice,3,1,-2,7.0,2,2,1,1,3.0,18,3.0,3.0,0.33596532663349743
382,576,w5ef243f,Scene,0.0,2532.0,0,1,5,choice,3,2,4,-9.0,4,4,2,2,-10.0,5,-10.0,-10.0,-1.7597242696694029
383,577,w5ef243f,Food,1.0,2539.0,0,2,5,choice,1,1,-2,-2.0,4,4,1,1,-2.0,-2,-2.0,-2.0,-0.4700691334830028
384,578,w5ef243f,Blue,1.0,1482.0,1,3,5,choice,2,2,3,2.0,4,4,2,2,2.0,9,2.0,2.0,0.17475843461019738
385,579,wfdd68c1,Green,0.0,4579.0,0,1,1,choice,2,2,1,0.0,4,4,1,2,3.0,-3,3.0,3.0,0.33596532663349743
386,580,wfdd68c1,Yellow,1.0,1572.0,0,2,1,choice,1,4,-8,6.0,4,4,1,2,6.0,-8,6.0,6.0,0.8195860027033975
387,581,wfdd68c1,Blue,1.0,786.0,1,3,1,choice,3,2,2,5.0,4,4,2,2,13.0,-4,13.0,13.0,1.948034246866498
388,582,wfdd68c1,Object,,,0,1,2,choice,3,2,-2,-4.0,6,6,3,3,-4.0,-10,1.0,1.0,-0.7924829175296029
389,583,wfdd68c1,Red,1.0,2288.0,0,2,2,choice,1,1,-3,-3.0,6,6,1,1,-3.0,-6,-3.0,-3.0,-0.6312760255063028
390,584,wfdd68c1,Scene,0.0,2832.0,1,3,2,choice,2,2,-3,-1.0,6,6,2,2,-1.0,-3,-1.0,-1.0,-0.3088622414597027
391,586,wfdd68c1,Object,1.0,3317.0,1,2,3,choice,1,1,6,6.0,5,5,1,2,12.0,6,6.0,6.0,1.7868273548431979
392,587,wfdd68c1,Scene,0.0,3519.0,1,3,3,choice,3,3,-1,-12.0,5,5,3,3,-12.0,-1,-5.0,-5.0,-2.082138053716003
393,588,wfdd68c1,Green,0.0,3857.0,1,1,4,choice,2,2,-3,-1.0,6,6,2,2,-1.0,-3,-1.0,-1.0,-0.3088622414597027
394,589,wfdd68c1,Animal,1.0,3475.0,0,2,4,choice,3,1,-3,-1.0,6,6,3,3,-1.0,-13,-4.0,-4.0,-0.3088622414597027
395,590,wfdd68c1,Yellow,1.0,2503.0,0,3,4,choice,1,2,-4,-4.0,6,6,1,1,-4.0,-8,-4.0,-4.0,-0.7924829175296029
396,591,wfdd68c1,Food,1.0,2637.0,0,1,5,choice,1,1,-5,-4.0,5,5,1,1,-4.0,-10,-4.0,-4.0,-0.7924829175296029
397,592,wfdd68c1,Red,1.0,3014.0,0,2,5,choice,3,2,-3,-3.0,5,5,2,2,1.0,-10,-4.0,-4.0,0.013551542586897376
398,593,wfdd68c1,Blue,0.0,2228.0,0,3,5,choice,2,2,2,2.0,5,5,2,2,2.0,2,2.0,2.0,0.17475843461019738
399,606,w2b9a138,Scene,1.0,2784.0,1,1,1,choice,2,2,4,13.0,5,5,2,2,13.0,4,13.0,13.0,1.948034246866498
400,607,w2b9a138,Animal,1.0,2421.0,1,2,1,choice,1,1,8,6.0,5,5,1,1,6.0,8,6.0,6.0,0.8195860027033975
401,608,w2b9a138,Object,0.0,992.0,1,3,1,choice,3,3,-1,-5.0,5,5,2,2,-1.0,-1,-5.0,-1.0,-0.3088622414597027
402,609,w2b9a138,Red,1.0,2105.0,1,1,2,choice,3,2,1,-3.0,5,5,2,2,-1.0,-1,-1.0,-1.0,-0.3088622414597027
403,610,w2b9a138,Blue,0.0,2656.0,1,2,2,choice,1,1,-9,-6.0,5,5,1,1,-6.0,-9,-6.0,-6.0,-1.1148967015762028
404,611,w2b9a138,Green,1.0,1758.0,0,3,2,choice,2,3,-3,3.0,5,5,2,2,3.0,-3,3.0,3.0,0.33596532663349743
405,612,w2b9a138,Yellow,0.0,3138.0,1,1,3,choice,3,3,-5,3.0,5,5,3,3,3.0,-4,3.0,3.0,0.33596532663349743
406,613,w2b9a138,Scene,1.0,1710.0,1,2,3,choice,1,1,9,9.0,5,5,1,1,9.0,18,9.0,9.0,1.3032066787732979
407,614,w2b9a138,Food,0.0,2973.0,1,3,3,choice,2,3,-3,-1.0,5,5,2,3,-1.0,-11,-1.0,-1.0,-0.3088622414597027
408,615,w2b9a138,Food,0.0,1814.0,1,1,4,choice,3,2,-3,-8.0,3,3,1,1,-6.0,13,1.0,-6.0,-1.1148967015762028
409,616,w2b9a138,Blue,1.0,2040.0,1,2,4,choice,2,2,6,4.0,3,3,1,1,-3.0,15,4.0,-3.0,-0.6312760255063028
410,618,w2b9a138,Green,0.0,2351.0,1,1,5,choice,1,1,-5,-6.0,1,1,1,1,-6.0,-10,-6.0,-6.0,-1.1148967015762028
411,619,w2b9a138,Animal,1.0,3211.0,1,2,5,choice,3,3,1,3.0,1,1,1,2,-6.0,-4,-2.0,-6.0,-1.1148967015762028
412,621,wd887970,Scene,0.0,6233.0,1,1,1,choice,2,2,-5,-4.0,3,3,1,1,-8.0,-9,-8.0,-8.0,-1.4373104856228027
413,623,wd887970,Food,1.0,4687.0,0,3,1,choice,3,1,-1,14.0,3,3,1,1,9.0,8,9.0,9.0,1.3032066787732979
414,624,wd887970,Blue,1.0,4232.0,1,1,2,choice,2,2,5,0.0,4,4,2,2,0.0,3,0.0,0.0,-0.14765534943640266
415,625,wd887970,Animal,1.0,6017.0,0,2,2,choice,3,2,-1,2.0,4,4,2,2,5.0,1,5.0,5.0,0.6583791106800975
416,626,wd887970,Scene,1.0,3234.0,1,3,2,choice,1,1,8,7.0,4,4,1,1,7.0,8,7.0,7.0,0.9807928947266976
417,627,wd887970,Yellow,0.0,5943.0,0,1,3,choice,1,2,7,2.0,5,5,1,2,2.0,7,2.0,2.0,0.17475843461019738
418,628,wd887970,Blue,1.0,4308.0,0,2,3,choice,3,3,-1,0.0,5,5,3,3,0.0,-1,0.0,0.0,-0.14765534943640266
419,629,wd887970,Red,1.0,2923.0,0,3,3,choice,2,1,-7,-4.0,5,5,1,1,-7.0,-8,-7.0,-7.0,-1.2761035935995029
420,630,wd887970,Green,1.0,6545.0,1,1,4,choice,3,3,1,5.0,5,5,3,3,5.0,1,5.0,5.0,0.6583791106800975
421,632,wd887970,Yellow,1.0,5048.0,0,3,4,choice,2,2,-1,-1.0,5,5,2,2,-1.0,-1,-1.0,-1.0,-0.3088622414597027
422,633,wd887970,Object,1.0,4809.0,0,1,5,choice,3,3,-1,-2.0,6,6,3,3,-2.0,-1,-2.0,-2.0,-0.4700691334830028
423,634,wd887970,Food,0.0,5643.0,1,2,5,choice,2,2,-3,4.0,6,6,2,2,4.0,-3,4.0,4.0,0.49717221865679745
424,635,wd887970,Animal,1.0,3288.0,1,3,5,choice,1,1,7,7.0,6,6,1,1,7.0,7,7.0,7.0,0.9807928947266976
425,636,w4b34871,Object,1.0,2868.0,1,1,1,choice,3,9,1,3.0,5,5,2,2,5.0,-5,4.0,4.0,0.6583791106800975
426,637,w4b34871,Food,0.0,2958.0,1,2,1,choice,1,1,-8,-3.0,5,5,1,2,-3.0,-16,-3.0,-3.0,-0.6312760255063028
427,638,w4b34871,Blue,1.0,1634.0,1,3,1,choice,2,1,1,3.0,5,5,2,2,3.0,0,1.0,1.0,0.33596532663349743
428,639,w4b34871,Object,,,0,1,2,choice,3,1,-2,2.0,3,3,1,1,-7.0,-4,-7.0,-7.0,-1.2761035935995029
429,640,w4b34871,Animal,0.0,3614.0,1,2,2,choice,2,1,-6,-6.0,3,3,1,1,-8.0,-8,-8.0,-8.0,-1.4373104856228027
430,641,w4b34871,Scene,1.0,1352.0,1,3,2,choice,1,1,3,5.0,3,3,1,1,5.0,3,5.0,5.0,0.6583791106800975
431,642,w4b34871,Yellow,1.0,2550.0,0,1,3,choice,3,2,-1,-3.0,2,2,2,2,-3.0,16,-3.0,-3.0,-0.6312760255063028
432,644,w4b34871,Food,1.0,1697.0,1,3,3,choice,2,1,3,-2.0,2,2,1,1,-5.0,18,-5.0,-5.0,-0.9536898095529028
433,645,w4b34871,Green,0.0,2167.0,1,1,4,choice,2,1,-6,4.0,1,1,1,1,4.0,3,4.0,4.0,0.49717221865679745
434,648,w4b34871,Blue,0.0,3426.0,0,1,5,choice,1,1,6,-4.0,3,3,1,1,-4.0,6,-4.0,-4.0,-0.7924829175296029
435,649,w4b34871,Yellow,1.0,1842.0,0,2,5,choice,3,2,-2,1.0,3,3,2,2,6.0,2,6.0,6.0,0.8195860027033975
436,652,w29215b1,Blue,1.0,3867.0,0,2,1,choice,2,3,-5,6.0,3,3,1,2,4.0,-5,6.0,4.0,0.49717221865679745
437,653,w29215b1,Yellow,0.0,2980.0,1,3,1,choice,3,1,-2,-4.0,3,3,2,2,1.0,6,-3.0,-3.0,0.013551542586897376
438,654,w29215b1,Scene,,,0,1,2,choice,2,3,-2,-8.0,2,2,1,1,-4.0,-2,-8.0,-4.0,-0.7924829175296029
439,655,w29215b1,Animal,0.0,4714.0,0,2,2,choice,3,3,2,-9.0,2,2,1,1,-8.0,5,-9.0,-8.0,-1.4373104856228027
440,657,w29215b1,Object,1.0,5226.0,0,1,3,choice,3,4,-2,-15.0,4,4,2,2,-11.0,0,-15.0,-11.0,-1.920931161692703
441,658,w29215b1,Red,0.0,5687.0,0,2,3,choice,1,3,8,-8.0,4,4,1,2,-8.0,16,-8.0,-8.0,-1.4373104856228027
442,659,w29215b1,Green,1.0,2254.0,0,3,3,choice,2,3,-5,-2.0,4,4,2,2,-2.0,-11,-2.0,-2.0,-0.4700691334830028
443,660,w29215b1,Blue,0.0,5460.0,0,1,4,choice,2,4,8,-7.0,6,6,2,2,-7.0,8,-7.0,-7.0,-1.2761035935995029
444,661,w29215b1,Red,1.0,5873.0,0,2,4,choice,1,4,-6,9.0,6,6,1,1,9.0,-6,9.0,9.0,1.3032066787732979
445,662,w29215b1,Green,0.0,3910.0,0,3,4,choice,3,4,2,-16.0,6,6,3,3,-16.0,2,-16.0,-16.0,-2.726965621809203
446,663,w29215b1,Object,1.0,3957.0,0,1,5,choice,1,4,-5,-5.0,3,3,1,1,-5.0,-5,-5.0,-5.0,-0.9536898095529028
447,664,w29215b1,Animal,0.0,3987.0,0,2,5,choice,3,4,3,-7.0,3,3,1,1,-5.0,3,-7.0,-5.0,-0.9536898095529028
448,665,w29215b1,Food,1.0,3875.0,0,3,5,choice,2,4,-1,-14.0,3,3,1,1,-9.0,-1,-14.0,-9.0,-1.5985173776461028
449,666,wf9cb312,Yellow,1.0,3647.0,1,1,1,choice,1,1,5,5.0,5,5,1,1,5.0,10,5.0,5.0,0.6583791106800975
450,667,wf9cb312,Scene,1.0,3075.0,1,2,1,choice,3,6,3,3.0,5,5,3,4,3.0,-1,9.0,9.0,0.33596532663349743
451,668,wf9cb312,Green,0.0,999.0,1,3,1,choice,2,2,-1,-1.0,5,5,2,2,-1.0,-2,-1.0,-1.0,-0.3088622414597027
452,669,wf9cb312,Yellow,0.0,1195.0,1,1,2,choice,3,3,-6,1.0,5,5,3,3,1.0,-6,1.0,1.0,0.013551542586897376
453,670,wf9cb312,Red,1.0,878.0,1,2,2,choice,1,2,6,9.0,5,5,1,2,9.0,6,9.0,9.0,1.3032066787732979
454,671,wf9cb312,Blue,0.0,2284.0,0,3,2,choice,2,2,1,2.0,5,5,1,1,-2.0,1,2.0,-2.0,-0.4700691334830028
455,672,wf9cb312,Blue,1.0,3090.0,0,1,3,choice,3,3,-1,-8.0,5,5,3,3,-8.0,3,-8.0,-8.0,-1.4373104856228027
456,673,wf9cb312,Green,0.0,1265.0,1,2,3,choice,2,2,-5,-10.0,5,5,1,1,-8.0,-5,-10.0,-8.0,-1.4373104856228027
457,674,wf9cb312,Object,0.0,6052.0,0,3,3,choice,1,2,4,-2.0,5,5,1,1,-2.0,8,-2.0,-2.0,-0.4700691334830028
458,675,wf9cb312,Animal,0.0,1195.0,1,1,4,choice,3,3,-4,-9.0,4,4,2,2,-12.0,-4,-9.0,-12.0,-2.082138053716003
459,676,wf9cb312,Scene,0.0,2252.0,0,2,4,choice,1,2,9,7.0,4,4,1,2,7.0,9,7.0,7.0,0.9807928947266976
460,677,wf9cb312,Food,1.0,2408.0,0,3,4,choice,2,1,-1,7.0,4,4,1,1,2.0,2,2.0,2.0,0.17475843461019738
461,678,wf9cb312,Animal,0.0,1447.0,1,1,5,choice,2,2,-1,3.0,4,4,1,2,7.0,-9,7.0,7.0,0.9807928947266976
462,680,wf9cb312,Object,1.0,2895.0,1,3,5,choice,3,3,2,-10.0,4,4,2,2,-7.0,2,-10.0,-7.0,-1.2761035935995029
463,682,w2f45fb6,Blue,0.0,4364.0,1,2,1,choice,2,2,-3,0.0,3,3,2,2,0.0,-6,0.0,0.0,-0.14765534943640266
464,683,w2f45fb6,Green,1.0,2550.0,0,3,1,choice,3,3,-3,9.0,3,3,1,1,9.0,9,0.0,0.0,1.3032066787732979
465,684,w2f45fb6,Scene,0.0,5349.0,1,1,2,choice,1,1,-2,-1.0,5,5,1,1,-1.0,-4,-1.0,-1.0,-0.3088622414597027
466,685,w2f45fb6,Yellow,0.0,3731.0,1,2,2,choice,3,2,-1,-9.0,5,5,2,2,-9.0,-12,-9.0,-9.0,-1.5985173776461028
467,686,w2f45fb6,Blue,1.0,3772.0,1,3,2,choice,2,2,2,4.0,5,5,2,2,4.0,2,4.0,4.0,0.49717221865679745
468,687,w2f45fb6,Animal,1.0,5820.0,1,1,3,choice,2,2,1,2.0,6,6,2,2,2.0,-3,2.0,2.0,0.17475843461019738
469,688,w2f45fb6,Green,0.0,4706.0,1,2,3,choice,3,3,-1,0.0,6,6,3,3,0.0,4,0.0,0.0,-0.14765534943640266
470,689,w2f45fb6,Object,1.0,5094.0,1,3,3,choice,1,1,9,9.0,6,6,1,1,9.0,18,9.0,9.0,1.3032066787732979
471,690,w2f45fb6,Scene,,,0,1,4,choice,3,2,-3,-4.0,6,6,3,3,-4.0,-19,-12.0,-12.0,-0.7924829175296029
472,691,w2f45fb6,Animal,1.0,4171.0,1,2,4,choice,1,1,6,6.0,6,6,1,1,6.0,6,6.0,6.0,0.8195860027033975
473,692,w2f45fb6,Yellow,0.0,3914.0,1,3,4,choice,2,2,-3,-3.0,6,6,2,2,-3.0,-10,-3.0,-3.0,-0.6312760255063028
474,693,w2f45fb6,Object,0.0,3697.0,1,1,5,choice,3,3,-3,-4.0,6,6,3,3,-4.0,6,-4.0,-4.0,-0.7924829175296029
475,694,w2f45fb6,Red,1.0,2546.0,1,2,5,choice,2,2,6,4.0,6,6,2,2,4.0,15,4.0,4.0,0.49717221865679745
476,695,w2f45fb6,Food,1.0,3846.0,1,3,5,choice,1,1,7,6.0,6,6,1,1,6.0,7,6.0,6.0,0.8195860027033975
477,696,wdabae0a,Scene,1.0,5155.0,0,1,1,choice,1,2,-2,6.0,4,4,1,2,6.0,-4,6.0,6.0,0.8195860027033975
478,697,wdabae0a,Animal,1.0,5148.0,1,2,1,choice,2,2,4,13.0,4,4,1,2,4.0,13,4.0,4.0,0.49717221865679745
479,698,wdabae0a,Food,0.0,3788.0,0,3,1,choice,3,7,2,8.0,4,4,2,2,5.0,10,24.0,15.0,0.6583791106800975
480,699,wdabae0a,Object,0.0,3824.0,1,1,2,choice,2,2,-4,13.0,5,5,2,2,13.0,-13,13.0,13.0,1.948034246866498
481,700,wdabae0a,Blue,1.0,2045.0,1,2,2,choice,3,2,1,-1.0,5,5,3,3,-1.0,-15,6.0,6.0,-0.3088622414597027
482,702,wdabae0a,Yellow,1.0,4867.0,0,1,3,choice,3,2,-4,15.0,3,3,1,1,6.0,1,10.0,6.0,0.8195860027033975
483,703,wdabae0a,Red,0.0,1424.0,1,2,3,choice,2,2,-7,-8.0,3,3,1,2,0.0,1,1.0,1.0,-0.14765534943640266
484,704,wdabae0a,Green,0.0,2393.0,0,3,3,choice,1,2,4,4.0,3,3,1,2,4.0,4,4.0,4.0,0.49717221865679745
485,706,wdabae0a,Scene,0.0,2047.0,0,2,4,choice,2,1,5,15.0,5,5,2,2,15.0,18,8.0,8.0,2.270448030913098
486,707,wdabae0a,Yellow,0.0,2098.0,1,3,4,choice,3,3,-1,-4.0,5,5,3,3,-4.0,8,-4.0,-4.0,-0.7924829175296029
487,711,w65ed633,Scene,1.0,6265.0,1,1,1,choice,1,1,6,6.0,5,5,1,1,6.0,12,6.0,6.0,0.8195860027033975
488,712,w65ed633,Yellow,0.0,4438.0,0,2,1,choice,3,3,4,4.0,5,5,3,4,4.0,1,4.0,4.0,0.49717221865679745
489,713,w65ed633,Object,0.0,6744.0,1,3,1,choice,2,1,-8,-8.0,5,5,2,2,-8.0,-18,-9.0,-9.0,-1.4373104856228027
490,714,w65ed633,Green,0.0,5256.0,0,1,2,choice,1,1,3,-2.0,5,5,1,1,-2.0,6,-2.0,-2.0,-0.4700691334830028
491,715,w65ed633,Food,1.0,5361.0,1,2,2,choice,2,2,7,15.0,5,5,2,2,15.0,7,15.0,15.0,2.270448030913098
492,716,w65ed633,Scene,1.0,5398.0,1,3,2,choice,3,2,2,-3.0,5,5,2,2,-10.0,13,5.0,-2.0,-1.7597242696694029
493,717,w65ed633,Object,1.0,6084.0,0,1,3,choice,2,1,-1,-1.0,6,6,2,2,-1.0,12,6.0,6.0,-0.3088622414597027
494,718,w65ed633,Red,0.0,2268.0,1,2,3,choice,3,3,-2,-2.0,6,6,3,3,-2.0,4,-2.0,-2.0,-0.4700691334830028
495,719,w65ed633,Blue,1.0,1940.0,1,3,3,choice,1,1,4,4.0,6,6,1,1,4.0,4,4.0,4.0,0.49717221865679745
496,720,w65ed633,Blue,0.0,5961.0,1,1,4,choice,1,1,-7,9.0,6,6,1,1,9.0,-7,9.0,9.0,1.3032066787732979
497,721,w65ed633,Red,,,0,2,4,choice,2,2,3,-13.0,6,6,2,2,-13.0,3,-13.0,-13.0,-2.243344945739303
498,722,w65ed633,Green,1.0,1957.0,1,3,4,choice,3,2,2,2.0,6,6,3,3,2.0,7,7.0,7.0,0.17475843461019738
499,723,w65ed633,Food,1.0,7159.0,1,1,5,choice,2,2,1,1.0,6,6,2,2,1.0,1,1.0,1.0,0.013551542586897376
500,724,w65ed633,Yellow,1.0,4669.0,1,2,5,choice,1,1,3,3.0,6,6,1,1,3.0,6,3.0,3.0,0.33596532663349743
501,725,w65ed633,Animal,1.0,3992.0,1,3,5,choice,3,2,1,3.0,6,6,3,3,3.0,11,8.0,8.0,0.33596532663349743
502,726,wcabe93e,Food,1.0,6592.0,1,1,1,choice,3,3,2,15.0,5,5,3,3,15.0,10,15.0,15.0,2.270448030913098
503,727,wcabe93e,Red,1.0,6067.0,0,2,1,choice,2,2,-1,0.0,5,5,2,2,0.0,2,0.0,0.0,-0.14765534943640266
504,728,wcabe93e,Green,1.0,5322.0,1,3,1,choice,1,1,5,6.0,5,5,1,1,6.0,10,6.0,6.0,0.8195860027033975
505,729,wcabe93e,Blue,1.0,1849.0,1,1,2,choice,2,1,6,6.0,5,5,2,2,6.0,-2,-2.0,-2.0,0.8195860027033975
506,730,wcabe93e,Green,1.0,1369.0,1,2,2,choice,3,2,3,7.0,5,5,2,2,4.0,2,9.0,6.0,0.49717221865679745
507,731,wcabe93e,Scene,1.0,3290.0,1,3,2,choice,1,1,4,6.0,5,5,1,1,6.0,8,6.0,6.0,0.8195860027033975
508,732,wcabe93e,Scene,1.0,4263.0,0,1,3,choice,3,3,-4,7.0,5,5,3,3,7.0,-12,7.0,7.0,0.9807928947266976
509,733,wcabe93e,Yellow,0.0,5439.0,1,2,3,choice,2,2,-7,4.0,5,5,2,2,4.0,-15,4.0,4.0,0.49717221865679745
510,735,wcabe93e,Object,1.0,2895.0,1,1,4,choice,3,2,1,1.0,4,4,2,2,8.0,8,8.0,8.0,1.1419997867499976
511,736,wcabe93e,Animal,1.0,5253.0,0,2,4,choice,1,1,-8,4.0,4,4,1,1,4.0,-8,4.0,4.0,0.49717221865679745
512,737,wcabe93e,Blue,1.0,4556.0,0,3,4,choice,2,2,-5,-3.0,4,4,2,2,-3.0,-3,-3.0,-3.0,-0.6312760255063028
513,738,wcabe93e,Animal,1.0,2446.0,0,1,5,choice,3,2,-2,9.0,3,3,2,2,3.0,11,3.0,3.0,0.33596532663349743
514,739,wcabe93e,Yellow,1.0,2253.0,1,2,5,choice,1,1,7,7.0,3,3,1,1,7.0,14,7.0,7.0,0.9807928947266976
515,740,wcabe93e,Food,0.0,4412.0,1,3,5,choice,2,2,-2,4.0,3,3,1,1,-3.0,-2,4.0,-3.0,-0.6312760255063028
516,741,w950a999,Object,1.0,4088.0,0,1,1,choice,2,2,-5,0.0,5,5,1,1,0.0,-11,14.0,7.0,-0.14765534943640266
517,742,w950a999,Animal,1.0,3269.0,1,2,1,choice,1,2,9,0.0,5,5,1,2,0.0,18,3.0,3.0,-0.14765534943640266
518,743,w950a999,Red,0.0,1075.0,1,3,1,choice,3,3,-4,-5.0,5,5,3,3,-5.0,-1,5.0,5.0,-0.9536898095529028
519,744,w950a999,Yellow,1.0,4825.0,0,1,2,choice,1,2,-3,0.0,3,3,1,2,0.0,-6,5.0,5.0,-0.14765534943640266
520,745,w950a999,Food,0.0,1166.0,1,2,2,choice,2,2,-1,-8.0,3,3,1,1,-8.0,-1,-4.0,-8.0,-1.4373104856228027
521,746,w950a999,Scene,1.0,3526.0,0,3,2,choice,3,3,-2,-5.0,3,3,2,3,0.0,2,12.0,12.0,-0.14765534943640266
522,747,w950a999,Object,0.0,2196.0,1,1,3,choice,3,2,-1,-6.0,4,4,2,2,-6.0,-10,13.0,9.0,-1.1148967015762028
523,748,w950a999,Food,0.0,5641.0,0,2,3,choice,1,2,5,0.0,4,4,1,3,0.0,5,8.0,8.0,-0.14765534943640266
524,749,w950a999,Animal,1.0,1489.0,1,3,3,choice,2,2,3,-6.0,4,4,1,1,0.0,3,-2.0,4.0,-0.14765534943640266
525,750,w950a999,Green,1.0,4980.0,0,1,4,choice,1,2,-5,-2.0,5,5,1,1,-2.0,-5,-2.0,-2.0,-0.4700691334830028
526,751,w950a999,Red,0.0,3018.0,1,2,4,choice,2,2,-1,0.0,5,5,2,2,0.0,-1,7.0,7.0,-0.14765534943640266
527,752,w950a999,Blue,1.0,939.0,1,3,4,choice,3,2,2,-12.0,5,5,2,2,-8.0,-4,-4.0,-4.0,-1.4373104856228027
528,753,w950a999,Yellow,1.0,5006.0,0,1,5,choice,1,1,-4,0.0,4,4,1,1,0.0,-4,6.0,6.0,-0.14765534943640266
529,754,w950a999,Blue,0.0,1331.0,0,2,5,choice,2,2,2,-4.0,4,4,1,2,0.0,8,6.0,6.0,-0.14765534943640266
530,755,w950a999,Green,1.0,1001.0,1,3,5,choice,3,2,1,-4.0,4,4,2,2,-4.0,-4,-1.0,-1.0,-0.7924829175296029
531,771,w2fdc513,Animal,0.0,5128.0,1,1,1,choice,3,3,-5,-12.0,3,3,1,1,-3.0,24,7.0,7.0,-0.6312760255063028
532,772,w2fdc513,Red,0.0,2016.0,0,2,1,choice,1,2,8,-3.0,3,3,1,1,-3.0,24,-3.0,-3.0,-0.6312760255063028
533,773,w2fdc513,Scene,1.0,846.0,0,3,1,choice,2,3,-1,7.0,3,3,1,1,2.0,6,7.0,7.0,0.17475843461019738
534,774,w2fdc513,Green,1.0,3544.0,1,1,2,choice,2,2,7,9.0,4,4,2,2,9.0,14,9.0,9.0,1.3032066787732979
535,776,w2fdc513,Food,0.0,2591.0,1,3,2,choice,3,4,-1,10.0,4,4,2,2,7.0,0,13.0,13.0,0.9807928947266976
536,777,w2fdc513,Blue,1.0,3320.0,1,1,3,choice,2,2,6,3.0,5,5,1,1,5.0,6,3.0,5.0,0.6583791106800975
537,778,w2fdc513,Yellow,1.0,5714.0,1,2,3,choice,3,2,1,4.0,5,5,3,3,4.0,7,12.0,12.0,0.49717221865679745
538,780,w2fdc513,Animal,0.0,2920.0,1,1,4,choice,1,1,-8,-8.0,4,4,1,1,-8.0,-16,-8.0,-8.0,-1.4373104856228027
539,781,w2fdc513,Red,0.0,2245.0,0,2,4,choice,3,3,2,-3.0,4,4,2,2,0.0,-6,-3.0,0.0,-0.14765534943640266
540,784,w2fdc513,Green,1.0,1284.0,1,2,5,choice,3,2,3,15.0,2,2,2,2,9.0,3,5.0,5.0,1.3032066787732979
541,785,w2fdc513,Food,0.0,2863.0,1,3,5,choice,2,2,-1,1.0,2,2,1,1,4.0,-1,1.0,4.0,0.49717221865679745
542,786,w0a90f7a,Animal,0.0,2530.0,0,1,1,choice,2,2,2,-2.0,2,2,1,1,-6.0,-8,-6.0,-6.0,-1.1148967015762028
543,789,w0a90f7a,Scene,1.0,2287.0,1,1,2,choice,2,2,5,13.0,5,5,2,2,13.0,18,15.0,15.0,1.948034246866498
544,790,w0a90f7a,Red,1.0,3065.0,0,2,2,choice,3,2,-6,10.0,5,5,2,2,15.0,4,15.0,15.0,2.270448030913098
545,791,w0a90f7a,Blue,0.0,2427.0,0,3,2,choice,1,1,6,-6.0,5,5,1,1,-6.0,6,-6.0,-6.0,-1.1148967015762028
546,792,w0a90f7a,Red,1.0,3382.0,1,1,3,choice,3,2,6,-9.0,2,2,2,3,0.0,23,0.0,0.0,-0.14765534943640266
547,794,w0a90f7a,Animal,0.0,3298.0,0,3,3,choice,1,1,8,6.0,2,2,1,1,6.0,16,6.0,6.0,0.8195860027033975
548,795,w0a90f7a,Yellow,0.0,3252.0,1,1,4,choice,2,2,-2,1.0,5,5,2,2,1.0,-12,-6.0,-6.0,0.013551542586897376
549,796,w0a90f7a,Food,1.0,1111.0,0,2,4,choice,1,2,-2,-2.0,5,5,1,1,-2.0,-6,-6.0,-6.0,-0.4700691334830028
550,797,w0a90f7a,Green,1.0,2990.0,0,3,4,choice,3,3,-1,8.0,5,5,2,2,4.0,-14,4.0,4.0,0.49717221865679745
551,799,w0a90f7a,Object,1.0,3627.0,1,2,5,choice,1,1,8,-4.0,1,1,1,3,-4.0,8,-4.0,-4.0,-0.7924829175296029
552,801,w1ad74ca,Food,1.0,6430.0,1,1,1,choice,3,2,4,3.0,5,5,3,3,3.0,5,7.0,7.0,0.33596532663349743
553,802,w1ad74ca,Blue,1.0,4511.0,1,2,1,choice,2,2,2,0.0,5,5,2,2,0.0,8,0.0,0.0,-0.14765534943640266
554,804,w1ad74ca,Red,,,0,1,2,choice,3,2,-3,-8.0,5,5,2,2,-2.0,-11,-11.0,-5.0,-0.4700691334830028
555,805,w1ad74ca,Yellow,1.0,1959.0,1,2,2,choice,1,1,9,8.0,5,5,1,1,8.0,9,8.0,8.0,1.1419997867499976
556,806,w1ad74ca,Green,0.0,3039.0,1,3,2,choice,2,2,-3,5.0,5,5,2,2,5.0,-3,5.0,5.0,0.6583791106800975
557,807,w1ad74ca,Scene,0.0,2899.0,1,1,3,choice,3,3,-1,-13.0,6,6,3,3,-13.0,-1,-13.0,-13.0,-2.243344945739303
558,808,w1ad74ca,Object,1.0,3277.0,1,2,3,choice,1,1,4,3.0,6,6,1,1,3.0,4,3.0,3.0,0.33596532663349743
559,809,w1ad74ca,Animal,1.0,3205.0,1,3,3,choice,2,1,5,7.0,6,6,2,2,7.0,6,8.0,8.0,0.9807928947266976
560,810,w1ad74ca,Scene,0.0,3682.0,1,1,4,choice,1,1,-5,-8.0,4,4,1,1,-8.0,-5,-8.0,-8.0,-1.4373104856228027
561,811,w1ad74ca,Food,0.0,3373.0,0,2,4,choice,2,2,6,7.0,4,4,1,1,8.0,4,7.0,8.0,1.1419997867499976
562,812,w1ad74ca,Object,0.0,2671.0,0,3,4,choice,3,3,2,-1.0,4,4,2,2,-6.0,-4,-4.0,-8.0,-1.1148967015762028
563,813,w1ad74ca,Red,1.0,5116.0,1,1,5,choice,2,2,2,1.0,3,3,1,1,-1.0,2,1.0,-1.0,-0.3088622414597027
564,814,w1ad74ca,Blue,1.0,2669.0,1,2,5,choice,3,2,1,2.0,3,3,2,2,-2.0,10,10.0,6.0,-0.4700691334830028
565,818,wae959a9,Scene,1.0,2564.0,1,3,1,choice,3,2,3,10.0,2,2,1,1,7.0,-1,12.0,7.0,0.9807928947266976
566,819,wae959a9,Animal,1.0,2291.0,1,1,2,choice,2,1,6,13.0,2,2,1,1,8.0,16,8.0,8.0,1.1419997867499976
567,821,wae959a9,Blue,0.0,821.0,1,3,2,choice,3,2,-4,3.0,2,2,1,1,8.0,11,5.0,8.0,1.1419997867499976
568,824,wae959a9,Red,1.0,880.0,1,3,3,choice,1,4,8,9.0,1,1,1,1,9.0,8,9.0,9.0,1.3032066787732979
569,828,wae959a9,Yellow,1.0,547.0,0,1,5,choice,1,1,-7,-7.0,2,2,1,1,-7.0,-14,-7.0,-7.0,-1.2761035935995029
570,830,wae959a9,Food,1.0,645.0,0,3,5,choice,3,2,-2,-4.0,2,2,1,1,-7.0,-14,-7.0,-7.0,-1.2761035935995029
