,index,wid,option,choice,rt,correct,trial_number,game,phase,n_true_memories,value,remembered_value,n_total_memories_shown,n_total_memories,n_remembered_shown,n_remembered
0,0,w18042a7,Pattern,1.0,2199.0,1,1,2,choice,4,1,2.0,1,1,1,1
1,1,w18042a7,Animal,0.0,2993.0,0,2,2,choice,2,4,2.0,1,1,0,0
2,2,w18042a7,Sea,0.0,4930.0,1,3,2,choice,1,-1,1.0,1,1,0,0
3,3,w18042a7,Large,0.0,938.0,0,4,2,choice,3,2,3.0,1,1,1,1
4,4,w18042a7,Small,1.0,2099.0,0,1,3,choice,4,-1,0.0,1,1,1,1
5,5,w18042a7,Animal,1.0,1755.0,1,2,3,choice,1,1,2.0,1,1,0,0
6,6,w18042a7,Sea,0.0,831.0,1,3,3,choice,3,-3,-3.0,1,1,0,0
7,7,w18042a7,Solid,1.0,975.0,0,4,3,choice,2,-1,-1.0,1,1,0,0
8,8,w18042a7,Object,1.0,2371.0,0,1,4,choice,2,-2,2.0,5,5,1,1
9,9,w18042a7,Large,0.0,837.0,0,2,4,choice,4,3,5.0,5,5,4,4
10,10,w18042a7,Land,0.0,1641.0,0,3,4,choice,1,1,1.0,5,5,1,1
11,11,w18042a7,Solid,1.0,2103.0,0,4,4,choice,3,-1,3.0,5,5,2,2
12,12,w18042a7,Land,0.0,3569.0,0,1,5,choice,1,1,1.0,5,5,1,1
13,13,w18042a7,Animal,1.0,2336.0,1,2,5,choice,4,3,3.0,5,5,4,4
14,14,w18042a7,Pattern,1.0,1280.0,0,3,5,choice,3,-1,-1.0,5,5,2,2
15,15,w18042a7,Small,1.0,1706.0,0,4,5,choice,2,-3,-3.0,5,5,1,1
16,16,w18042a7,Solid,1.0,2697.0,1,1,6,choice,3,4,4.0,4,4,2,2
17,17,w18042a7,Object,1.0,4064.0,1,2,6,choice,1,1,1.0,4,4,0,0
18,18,w18042a7,Large,1.0,2917.0,0,3,6,choice,2,-1,-1.0,4,4,1,1
19,19,w18042a7,Land,1.0,951.0,0,4,6,choice,4,-1,-1.0,4,4,2,2
20,20,w18042a7,Pattern,1.0,1635.0,0,1,7,choice,4,-1,-1.0,6,6,4,4
21,21,w18042a7,Object,0.0,3187.0,1,2,7,choice,3,-2,-2.0,6,6,3,3
22,22,w18042a7,Large,1.0,1142.0,0,3,7,choice,2,-1,-1.0,6,6,2,2
23,23,w18042a7,Sea,1.0,2031.0,1,4,7,choice,1,2,2.0,6,6,1,1
24,24,w2b4a70d,Solid,1.0,2020.0,1,1,1,choice,1,1,1.0,3,3,0,2
25,25,w2b4a70d,Animal,1.0,3165.0,0,2,1,choice,4,-1,1.0,3,3,1,3
26,26,w2b4a70d,Large,1.0,1584.0,0,3,1,choice,2,-3,1.0,3,3,1,3
27,27,w2b4a70d,Land,1.0,3420.0,0,4,1,choice,3,-5,0.0,3,3,1,2
28,28,w2b4a70d,Animal,1.0,2477.0,1,1,2,choice,4,2,0.0,4,4,2,2
29,29,w2b4a70d,Small,1.0,3839.0,0,2,2,choice,3,-2,-2.0,4,4,2,2
30,30,w2b4a70d,Sea,0.0,4056.0,1,3,2,choice,2,-1,2.0,4,4,2,2
31,31,w2b4a70d,Pattern,0.0,1272.0,1,4,2,choice,1,-1,-1.0,4,4,0,1
32,32,w2b4a70d,Object,1.0,1970.0,1,1,3,choice,4,4,0.0,4,4,3,4
33,33,w2b4a70d,Large,1.0,3943.0,1,2,3,choice,1,1,2.0,4,4,0,1
34,34,w2b4a70d,Pattern,0.0,1014.0,1,3,3,choice,3,-2,1.0,4,4,1,1
35,35,w2b4a70d,Land,1.0,4252.0,1,4,3,choice,2,1,-1.0,4,4,2,4
36,36,w2b4a70d,Solid,1.0,1833.0,1,1,4,choice,3,1,3.0,5,5,3,3
37,37,w2b4a70d,Animal,1.0,919.0,0,2,4,choice,4,-2,1.0,5,5,4,4
38,38,w2b4a70d,Small,0.0,2722.0,0,3,4,choice,2,1,0.0,5,5,2,2
39,39,w2b4a70d,Land,0.0,1890.0,0,4,4,choice,1,2,-1.0,5,5,0,0
40,40,w2b4a70d,Large,0.0,3200.0,1,1,5,choice,2,-4,1.0,5,5,1,1
41,41,w2b4a70d,Solid,1.0,3730.0,0,2,5,choice,3,-1,-1.0,5,5,2,2
42,42,w2b4a70d,Object,1.0,4210.0,1,3,5,choice,4,3,1.0,5,5,4,4
43,43,w2b4a70d,Sea,0.0,2857.0,0,4,5,choice,1,1,-1.0,5,5,1,1
44,44,w2b4a70d,Pattern,0.0,3598.0,0,1,6,choice,4,3,-1.0,4,4,2,2
45,45,w2b4a70d,Large,0.0,4940.0,1,2,6,choice,2,-2,0.0,4,4,2,3
46,46,w2b4a70d,Land,1.0,2937.0,0,3,6,choice,3,-1,1.0,4,4,2,2
47,47,w2b4a70d,Object,,,0,4,6,choice,1,1,-1.0,4,4,1,1
48,48,w2b4a70d,Animal,1.0,2905.0,1,1,7,choice,2,1,1.0,4,4,2,3
49,49,w2b4a70d,Small,0.0,2937.0,1,2,7,choice,1,-1,-1.0,4,4,1,2
50,50,w2b4a70d,Sea,1.0,1145.0,1,3,7,choice,3,2,3.0,4,4,3,4
51,51,w2b4a70d,Pattern,0.0,2125.0,0,4,7,choice,4,5,-2.0,4,4,3,4
52,52,w8f710ed,Animal,1.0,3162.0,1,1,1,choice,3,1,3.0,4,4,2,2
53,53,w8f710ed,Solid,0.0,1378.0,1,2,1,choice,4,-4,-2.0,4,4,2,2
54,54,w8f710ed,Small,0.0,3302.0,1,3,1,choice,1,-2,-2.0,4,4,0,0
55,55,w8f710ed,Land,1.0,4323.0,0,4,1,choice,2,-1,-1.0,4,4,2,2
56,56,w8f710ed,Pattern,0.0,3917.0,1,1,2,choice,1,-1,-1.0,6,6,1,1
57,57,w8f710ed,Land,1.0,3410.0,1,2,2,choice,2,1,1.0,6,6,2,2
58,58,w8f710ed,Object,1.0,1994.0,1,3,2,choice,4,2,2.0,6,6,4,4
59,59,w8f710ed,Small,0.0,1351.0,1,4,2,choice,3,-3,-3.0,6,6,3,3
60,60,w8f710ed,Large,0.0,6165.0,0,1,3,choice,2,2,-2.0,5,5,1,1
61,61,w8f710ed,Object,1.0,2342.0,1,2,3,choice,4,3,-1.0,5,5,3,3
62,62,w8f710ed,Solid,0.0,1119.0,1,3,3,choice,3,-2,-3.0,5,5,2,3
63,63,w8f710ed,Land,1.0,3795.0,0,4,3,choice,1,-2,-1.0,5,5,1,1
64,64,w8f710ed,Pattern,1.0,1262.0,1,1,4,choice,4,4,3.0,6,6,4,4
65,65,w8f710ed,Sea,0.0,1613.0,1,2,4,choice,3,-1,-1.0,6,6,3,3
66,66,w8f710ed,Large,1.0,1794.0,1,3,4,choice,2,3,3.0,6,6,2,2
67,67,w8f710ed,Animal,0.0,3242.0,0,4,4,choice,1,1,1.0,6,6,1,1
68,68,w8f710ed,Object,0.0,6391.0,1,1,5,choice,3,-1,-1.0,6,6,3,3
69,69,w8f710ed,Pattern,0.0,2983.0,1,2,5,choice,4,-2,-2.0,6,6,4,4
70,70,w8f710ed,Sea,1.0,1072.0,1,3,5,choice,2,3,3.0,6,6,2,2
71,71,w8f710ed,Large,0.0,1967.0,1,4,5,choice,1,-1,-1.0,6,6,1,1
72,72,w8f710ed,Object,,,0,1,6,choice,1,-1,-1.0,4,4,1,2
73,73,w8f710ed,Land,1.0,4294.0,0,2,6,choice,3,-1,-1.0,4,4,2,3
74,74,w8f710ed,Small,1.0,3704.0,1,3,6,choice,2,4,1.0,4,4,2,3
75,75,w8f710ed,Pattern,1.0,1896.0,1,4,6,choice,4,5,1.0,4,4,2,3
76,76,w8f710ed,Animal,1.0,1238.0,1,1,7,choice,3,3,3.0,3,3,1,2
77,77,w8f710ed,Small,1.0,6277.0,1,2,7,choice,4,1,1.0,3,3,1,2
78,78,w8f710ed,Solid,0.0,1576.0,1,3,7,choice,2,-2,-2.0,3,3,1,1
79,79,w8f710ed,Sea,0.0,2591.0,0,4,7,choice,1,1,1.0,3,3,0,1
80,80,wd697686,Land,1.0,6799.0,1,1,1,choice,1,2,1.0,3,3,1,4
81,81,wd697686,Solid,1.0,7056.0,1,2,1,choice,4,1,0.0,3,3,2,3
82,82,wd697686,Large,1.0,2630.0,1,3,1,choice,2,4,4.0,3,3,1,2
83,83,wd697686,Animal,0.0,771.0,1,4,1,choice,3,-2,1.0,3,3,2,2
84,84,wd697686,Sea,1.0,5619.0,0,1,2,choice,1,-2,-1.0,4,4,0,0
85,85,wd697686,Large,,,0,2,2,choice,3,1,1.0,4,4,3,3
86,86,wd697686,Solid,0.0,955.0,1,3,2,choice,4,-3,-2.0,4,4,3,3
87,87,wd697686,Animal,0.0,653.0,1,4,2,choice,2,-1,-1.0,4,4,2,2
88,88,wd697686,Small,0.0,3049.0,1,1,3,choice,3,-1,-1.0,5,5,2,2
89,89,wd697686,Solid,1.0,2168.0,1,2,3,choice,1,2,2.0,5,5,1,1
90,90,wd697686,Sea,0.0,2843.0,0,3,3,choice,4,2,1.0,5,5,4,4
91,91,wd697686,Object,1.0,2854.0,1,4,3,choice,2,4,4.0,5,5,2,2
92,92,wd697686,Object,1.0,2444.0,1,1,4,choice,1,2,2.0,3,3,0,0
93,93,wd697686,Pattern,0.0,1485.0,1,2,4,choice,4,-1,2.0,3,3,3,4
94,94,wd697686,Land,0.0,611.0,0,3,4,choice,2,3,3.0,3,3,1,2
95,95,wd697686,Small,0.0,1469.0,1,4,4,choice,3,-3,0.0,3,3,2,2
96,96,wd697686,Pattern,1.0,2680.0,1,1,5,choice,4,1,2.0,2,2,1,1
97,97,wd697686,Land,0.0,1951.0,1,2,5,choice,1,-1,-1.0,2,2,0,0
98,98,wd697686,Small,0.0,528.0,1,3,5,choice,3,-1,0.0,2,2,1,1
99,99,wd697686,Animal,1.0,899.0,0,4,5,choice,2,-1,1.0,2,2,2,2
100,100,wd697686,Small,1.0,775.0,0,1,6,choice,4,-4,-3.0,3,3,2,2
101,101,wd697686,Object,0.0,1787.0,1,2,6,choice,3,-2,-5.0,3,3,1,1
102,102,wd697686,Pattern,0.0,992.0,0,3,6,choice,2,2,-1.0,3,3,1,1
103,103,wd697686,Sea,0.0,675.0,1,4,6,choice,1,-1,-1.0,3,3,0,0
104,104,wd697686,Animal,1.0,1871.0,0,1,7,choice,1,-2,-2.0,1,1,0,2
105,105,wd697686,Sea,0.0,584.0,1,2,7,choice,4,-3,-3.0,1,1,1,2
106,106,wd697686,Large,1.0,823.0,1,3,7,choice,3,6,6.0,1,1,1,1
107,107,wd697686,Pattern,0.0,835.0,0,4,7,choice,2,1,0.0,1,1,0,1
108,108,w31bcaa3,Solid,,,0,1,1,choice,1,2,2.0,3,3,0,2
109,109,w31bcaa3,Animal,1.0,1495.0,1,2,1,choice,4,1,3.0,3,3,1,2
110,110,w31bcaa3,Large,1.0,1667.0,0,3,1,choice,2,-3,3.0,3,3,1,3
111,111,w31bcaa3,Land,1.0,3001.0,0,4,1,choice,3,-5,4.0,3,3,1,2
112,112,w31bcaa3,Animal,0.0,2540.0,0,1,2,choice,4,1,1.0,3,3,2,3
113,113,w31bcaa3,Sea,1.0,2564.0,1,2,2,choice,2,2,3.0,3,3,1,3
114,114,w31bcaa3,Small,0.0,3642.0,0,3,2,choice,3,2,3.0,3,3,1,3
115,115,w31bcaa3,Pattern,1.0,1740.0,0,4,2,choice,1,-1,-1.0,3,3,1,3
116,116,w31bcaa3,Pattern,0.0,2806.0,1,1,3,choice,3,-1,-1.0,4,4,3,4
117,117,w31bcaa3,Land,0.0,4245.0,1,2,3,choice,2,-4,-4.0,4,4,1,3
118,118,w31bcaa3,Large,1.0,2304.0,1,3,3,choice,1,2,2.0,4,4,1,3
119,119,w31bcaa3,Object,1.0,1490.0,0,4,3,choice,4,-1,-1.0,4,4,3,3
120,120,w31bcaa3,Small,0.0,2039.0,0,1,4,choice,2,3,3.0,5,5,2,3
121,121,w31bcaa3,Animal,1.0,2313.0,1,2,4,choice,4,3,3.0,5,5,3,3
122,122,w31bcaa3,Solid,1.0,2686.0,1,3,4,choice,3,2,2.0,5,5,3,4
123,123,w31bcaa3,Land,0.0,3679.0,1,4,4,choice,1,-1,-1.0,5,5,1,1
124,124,w31bcaa3,Sea,0.0,2290.0,1,1,5,choice,1,-2,-1.0,4,4,1,3
125,125,w31bcaa3,Large,0.0,2620.0,1,2,5,choice,2,-1,-3.0,4,4,1,2
126,126,w31bcaa3,Solid,1.0,2506.0,1,3,5,choice,3,4,2.0,4,4,1,3
127,127,w31bcaa3,Object,1.0,2874.0,0,4,5,choice,4,-3,-2.0,4,4,4,4
128,128,w31bcaa3,Land,1.0,2853.0,1,1,6,choice,3,1,4.0,4,4,2,4
129,129,w31bcaa3,Large,1.0,1954.0,0,2,6,choice,2,-1,2.0,4,4,2,2
130,130,w31bcaa3,Pattern,1.0,1052.0,1,3,6,choice,4,3,3.0,4,4,3,4
131,131,w31bcaa3,Object,0.0,1272.0,1,4,6,choice,1,-1,-2.0,4,4,1,2
132,132,w31bcaa3,Small,0.0,1120.0,1,1,7,choice,1,-1,-1.0,4,4,1,3
133,133,w31bcaa3,Pattern,1.0,1376.0,1,2,7,choice,4,1,1.0,4,4,3,4
134,134,w31bcaa3,Animal,1.0,1828.0,1,3,7,choice,2,1,1.0,4,4,2,3
135,135,w31bcaa3,Sea,0.0,1605.0,0,4,7,choice,3,2,2.0,4,4,2,4
136,136,wd3f2678,Large,1.0,4826.0,1,1,1,choice,1,1,-1.0,2,2,0,1
137,137,wd3f2678,Sea,1.0,5540.0,1,2,1,choice,3,1,3.0,2,2,1,1
138,138,wd3f2678,Solid,1.0,4920.0,1,3,1,choice,2,4,0.0,2,2,0,0
139,139,wd3f2678,Object,1.0,3442.0,0,4,1,choice,4,-1,2.0,2,2,2,3
140,140,wd3f2678,Sea,0.0,2978.0,1,1,2,choice,2,-1,-1.0,2,2,0,1
141,141,wd3f2678,Solid,0.0,1598.0,1,2,2,choice,4,-1,-1.0,2,2,1,1
142,142,wd3f2678,Large,1.0,1069.0,1,3,2,choice,1,1,1.0,2,2,0,1
143,143,wd3f2678,Animal,0.0,2120.0,0,4,2,choice,3,1,2.0,2,2,0,0
144,144,wd3f2678,Large,0.0,2890.0,1,1,3,choice,4,-3,0.0,1,1,0,1
145,145,wd3f2678,Land,1.0,1244.0,0,2,3,choice,1,-2,2.0,1,1,0,3
146,146,wd3f2678,Pattern,1.0,3750.0,1,3,3,choice,3,1,-2.0,1,1,1,3
147,147,wd3f2678,Animal,0.0,2288.0,1,4,3,choice,2,-3,-1.0,1,1,0,0
148,148,wd3f2678,Sea,1.0,3706.0,0,1,4,choice,2,-1,-3.0,1,1,0,2
149,149,wd3f2678,Animal,0.0,2757.0,0,2,4,choice,4,2,-3.0,1,1,0,1
150,150,wd3f2678,Pattern,0.0,1957.0,0,3,4,choice,3,1,-2.0,1,1,1,2
151,151,wd3f2678,Small,1.0,3165.0,0,4,4,choice,1,-2,-1.0,1,1,0,1
152,152,wd3f2678,Large,1.0,1689.0,0,1,5,choice,4,-1,-1.0,4,4,3,3
153,153,wd3f2678,Object,0.0,1602.0,1,2,5,choice,3,-2,-2.0,4,4,2,2
154,154,wd3f2678,Solid,1.0,1593.0,1,3,5,choice,1,1,1.0,4,4,0,0
155,155,wd3f2678,Land,0.0,1618.0,1,4,5,choice,2,-1,-4.0,4,4,1,1
156,156,wd3f2678,Pattern,0.0,2351.0,1,1,6,choice,2,-3,-4.0,4,4,1,1
157,157,wd3f2678,Land,1.0,1932.0,0,2,6,choice,4,-3,-4.0,4,4,2,2
158,158,wd3f2678,Object,1.0,3306.0,1,3,6,choice,3,3,-2.0,4,4,2,2
159,159,wd3f2678,Small,1.0,1632.0,1,4,6,choice,1,2,1.0,4,4,1,1
160,160,wd3f2678,Solid,0.0,2088.0,0,1,7,choice,2,1,-1.0,2,2,0,1
161,161,wd3f2678,Object,1.0,1641.0,0,2,7,choice,3,-4,0.0,2,2,1,1
162,162,wd3f2678,Land,1.0,3854.0,0,3,7,choice,1,-1,1.0,2,2,0,1
163,163,wd3f2678,Small,0.0,2677.0,0,4,7,choice,4,1,1.0,2,2,1,1
164,164,w970a2f0,Land,1.0,2053.0,0,1,1,choice,2,-1,0.0,6,6,0,0
165,165,w970a2f0,Animal,1.0,1306.0,1,2,1,choice,3,1,0.0,6,6,1,1
166,166,w970a2f0,Solid,1.0,3256.0,0,3,1,choice,4,-3,0.0,6,6,0,0
167,167,w970a2f0,Small,0.0,2690.0,1,4,1,choice,1,-2,0.0,6,6,0,0
168,168,w970a2f0,Animal,,,0,1,2,choice,2,-4,0.0,5,5,2,3
169,169,w970a2f0,Sea,1.0,4526.0,1,2,2,choice,1,2,0.0,5,5,1,1
170,170,w970a2f0,Large,1.0,2072.0,1,3,2,choice,3,1,0.0,5,5,3,4
171,171,w970a2f0,Pattern,1.0,2231.0,1,4,2,choice,4,3,0.0,5,5,3,3
172,172,w970a2f0,Animal,1.0,5591.0,0,1,3,choice,1,-2,0.0,1,1,0,1
173,173,w970a2f0,Solid,1.0,1285.0,1,2,3,choice,2,1,0.0,1,1,0,1
174,174,w970a2f0,Small,0.0,1235.0,1,3,3,choice,4,-4,0.0,1,1,0,1
175,175,w970a2f0,Sea,1.0,1168.0,1,4,3,choice,3,2,0.0,1,1,1,1
176,176,w970a2f0,Object,1.0,2814.0,0,1,4,choice,2,-1,0.0,3,3,1,2
177,177,w970a2f0,Land,1.0,3209.0,1,2,4,choice,1,1,0.0,3,3,0,1
178,178,w970a2f0,Solid,1.0,1209.0,0,3,4,choice,3,-3,0.0,3,3,1,2
179,179,w970a2f0,Large,0.0,3087.0,1,4,4,choice,4,-1,0.0,3,3,2,3
180,180,wbc9e827,Animal,1.0,5069.0,0,1,1,choice,4,-2,2.0,4,4,3,5
181,181,wbc9e827,Solid,,,0,2,1,choice,1,-2,2.0,4,4,1,3
182,182,wbc9e827,Land,1.0,2283.0,1,3,1,choice,3,3,3.0,4,4,3,4
183,183,wbc9e827,Large,0.0,2411.0,0,4,1,choice,2,1,1.0,4,4,2,4
184,184,wbc9e827,Animal,1.0,1938.0,1,1,2,choice,4,4,4.0,5,5,3,4
185,185,wbc9e827,Sea,0.0,1322.0,1,2,2,choice,2,-3,-3.0,5,5,2,2
186,186,wbc9e827,Small,1.0,967.0,1,3,2,choice,3,2,2.0,5,5,3,3
187,187,wbc9e827,Pattern,1.0,4913.0,1,4,2,choice,1,2,2.0,5,5,1,2
188,188,wbc9e827,Object,0.0,2534.0,1,1,3,choice,4,-1,-1.0,5,5,3,3
189,189,wbc9e827,Pattern,0.0,1536.0,1,2,3,choice,3,-1,1.0,5,5,3,3
190,190,wbc9e827,Large,0.0,885.0,1,3,3,choice,1,-1,-1.0,5,5,1,2
191,191,wbc9e827,Land,1.0,1099.0,1,4,3,choice,2,2,2.0,5,5,1,1
192,192,wbc9e827,Animal,1.0,1290.0,1,1,4,choice,4,2,1.0,6,6,4,4
193,193,wbc9e827,Solid,1.0,835.0,1,2,4,choice,3,6,5.0,6,6,3,3
194,194,wbc9e827,Land,0.0,2275.0,1,3,4,choice,1,-1,-1.0,6,6,1,1
195,195,wbc9e827,Small,0.0,1288.0,0,4,4,choice,2,1,0.0,6,6,2,2
196,196,wbc9e827,Sea,0.0,1642.0,0,1,5,choice,1,1,1.0,5,5,1,1
197,197,wbc9e827,Object,1.0,2038.0,0,2,5,choice,4,-1,-1.0,5,5,3,3
198,198,wbc9e827,Large,0.0,807.0,1,3,5,choice,2,-4,-3.0,5,5,2,2
199,199,wbc9e827,Solid,1.0,2165.0,1,4,5,choice,3,1,3.0,5,5,3,3
200,200,wbc9e827,Object,1.0,1628.0,1,1,6,choice,1,2,1.0,5,5,1,2
201,201,wbc9e827,Land,0.0,2000.0,1,2,6,choice,3,-2,-2.0,5,5,2,2
202,202,wbc9e827,Large,0.0,1755.0,1,3,6,choice,2,-1,-3.0,5,5,1,1
203,203,wbc9e827,Pattern,1.0,767.0,1,4,6,choice,4,4,2.0,5,5,4,4
204,204,wbc9e827,Small,0.0,1033.0,1,1,7,choice,1,-2,-2.0,5,5,1,1
205,205,wbc9e827,Sea,1.0,2146.0,1,2,7,choice,3,4,2.0,5,5,3,3
206,206,wbc9e827,Animal,0.0,1588.0,1,3,7,choice,2,-1,-1.0,5,5,2,3
207,207,wbc9e827,Pattern,0.0,1487.0,1,4,7,choice,4,-1,-1.0,5,5,4,5
208,208,we368c94,Small,1.0,2563.0,1,1,1,choice,1,2,1.0,5,5,1,2
209,209,we368c94,Land,0.0,3806.0,1,2,1,choice,2,-4,-4.0,5,5,2,3
210,210,we368c94,Animal,0.0,1954.0,1,3,1,choice,3,-2,-1.0,5,5,3,4
211,211,we368c94,Solid,1.0,2382.0,0,4,1,choice,4,-1,-1.0,5,5,4,5
212,212,we368c94,Small,1.0,3074.0,1,1,2,choice,3,2,2.0,6,6,3,3
213,213,we368c94,Object,1.0,3323.0,0,2,2,choice,4,-4,3.0,6,6,4,4
214,214,we368c94,Land,0.0,3624.0,1,3,2,choice,2,-3,0.0,6,6,2,2
215,215,we368c94,Pattern,1.0,4259.0,0,4,2,choice,1,-1,-1.0,6,6,1,1
216,216,we368c94,Object,0.0,951.0,0,1,3,choice,4,1,4.0,5,5,3,3
217,217,we368c94,Large,1.0,4967.0,0,2,3,choice,2,-2,1.0,5,5,1,2
218,218,we368c94,Land,0.0,2143.0,0,3,3,choice,1,1,1.0,5,5,1,1
219,219,we368c94,Solid,1.0,2654.0,1,4,3,choice,3,2,5.0,5,5,2,3
220,220,we368c94,Pattern,0.0,1601.0,1,1,4,choice,4,-1,-1.0,6,6,4,4
221,221,we368c94,Animal,1.0,851.0,1,2,4,choice,1,1,1.0,6,6,1,1
222,222,we368c94,Sea,1.0,2582.0,1,3,4,choice,3,5,4.0,6,6,3,3
223,223,we368c94,Large,0.0,3070.0,1,4,4,choice,2,-1,-1.0,6,6,2,2
224,224,we368c94,Sea,1.0,1792.0,1,1,5,choice,2,1,1.0,6,6,2,2
225,225,we368c94,Object,0.0,855.0,1,2,5,choice,3,-2,-2.0,6,6,3,3
226,226,we368c94,Pattern,1.0,1925.0,1,3,5,choice,4,2,2.0,6,6,4,4
227,227,we368c94,Large,0.0,3328.0,1,4,5,choice,1,-2,-2.0,6,6,1,1
228,228,we368c94,Object,0.0,2034.0,0,1,6,choice,1,1,1.0,6,6,1,1
229,229,we368c94,Pattern,0.0,2220.0,0,2,6,choice,4,1,3.0,6,6,4,4
230,230,we368c94,Small,1.0,2224.0,0,3,6,choice,2,-2,0.0,6,6,2,2
231,231,we368c94,Land,0.0,1792.0,1,4,6,choice,3,-1,3.0,6,6,3,3
232,232,we368c94,Animal,0.0,2081.0,0,1,7,choice,3,2,1.0,6,6,3,3
233,233,we368c94,Solid,1.0,3846.0,1,2,7,choice,2,1,0.0,6,6,2,2
234,234,we368c94,Small,0.0,1750.0,1,3,7,choice,4,-3,-1.0,6,6,4,4
235,235,we368c94,Sea,1.0,2180.0,0,4,7,choice,1,-2,-2.0,6,6,1,1
236,236,wb900a5f,Animal,1.0,3001.0,0,1,1,choice,3,-5,-2.0,5,5,2,3
237,237,wb900a5f,Land,0.0,1676.0,0,2,1,choice,2,1,-3.0,5,5,2,3
238,238,wb900a5f,Small,1.0,2089.0,1,3,1,choice,1,2,1.0,5,5,1,2
239,239,wb900a5f,Solid,1.0,2247.0,1,4,1,choice,4,1,-1.0,5,5,4,4
240,240,wb900a5f,Land,1.0,3210.0,1,1,2,choice,2,2,1.0,3,3,1,2
241,241,wb900a5f,Pattern,0.0,2186.0,0,2,2,choice,1,1,1.0,3,3,0,2
242,242,wb900a5f,Small,0.0,2399.0,1,3,2,choice,3,-2,4.0,3,3,1,1
243,243,wb900a5f,Object,1.0,3207.0,1,4,2,choice,4,1,0.0,3,3,2,3
244,244,wb900a5f,Object,1.0,1515.0,1,1,3,choice,4,3,2.0,3,3,2,3
245,245,wb900a5f,Large,0.0,2055.0,0,2,3,choice,2,1,4.0,3,3,1,4
246,246,wb900a5f,Solid,1.0,1161.0,1,3,3,choice,3,2,2.0,3,3,1,3
247,247,wb900a5f,Land,1.0,1159.0,0,4,3,choice,1,-1,1.0,3,3,0,1
248,248,wb900a5f,Sea,1.0,1337.0,0,1,4,choice,3,-1,1.0,2,2,1,3
249,249,wb900a5f,Large,0.0,450.0,0,2,4,choice,2,4,-1.0,2,2,1,4
250,250,wb900a5f,Pattern,1.0,635.0,1,3,4,choice,4,4,1.0,2,2,1,3
251,251,wb900a5f,Animal,1.0,2267.0,1,4,4,choice,1,2,1.0,2,2,0,2
252,252,wb900a5f,Pattern,1.0,1723.0,1,1,5,choice,4,2,1.0,5,5,3,4
253,253,wb900a5f,Object,0.0,727.0,0,2,5,choice,3,3,1.0,5,5,2,3
254,254,wb900a5f,Sea,0.0,975.0,1,3,5,choice,2,-2,1.0,5,5,2,3
255,255,wb900a5f,Large,1.0,501.0,1,4,5,choice,1,2,-1.0,5,5,1,2
256,256,wb900a5f,Object,1.0,1236.0,1,1,6,choice,1,1,1.0,1,1,0,4
257,257,wb900a5f,Land,0.0,609.0,1,2,6,choice,3,-1,-4.0,1,1,0,3
258,258,wb900a5f,Pattern,1.0,586.0,1,3,6,choice,4,2,-3.0,1,1,1,4
259,259,wb900a5f,Small,1.0,371.0,1,4,6,choice,2,1,0.0,1,1,1,4
260,260,wb900a5f,Sea,1.0,3335.0,0,1,7,choice,1,-2,-2.0,3,3,0,1
261,261,wb900a5f,Animal,0.0,740.0,0,2,7,choice,3,2,-2.0,3,3,1,1
262,262,wb900a5f,Small,1.0,474.0,0,3,7,choice,4,-4,-4.0,3,3,1,2
263,263,wb900a5f,Solid,0.0,432.0,1,4,7,choice,2,-4,-1.0,3,3,1,1
264,264,w52f1872,Land,0.0,6213.0,0,1,1,choice,2,1,0.0,4,4,1,1
265,265,w52f1872,Small,0.0,6150.0,0,2,1,choice,1,2,-1.0,4,4,1,1
266,266,w52f1872,Animal,1.0,3430.0,0,3,1,choice,3,-1,1.0,4,4,2,2
267,267,w52f1872,Solid,1.0,3163.0,1,4,1,choice,4,5,1.0,4,4,3,3
268,268,w52f1872,Pattern,0.0,1990.0,1,1,2,choice,1,-1,-1.0,6,6,1,1
269,269,w52f1872,Land,0.0,1939.0,1,2,2,choice,2,-2,0.0,6,6,2,2
270,270,w52f1872,Object,1.0,4775.0,0,3,2,choice,4,-1,0.0,6,6,4,4
271,271,w52f1872,Small,1.0,2007.0,1,4,2,choice,3,2,2.0,6,6,3,3
272,272,w52f1872,Land,0.0,6409.0,0,1,3,choice,1,2,1.0,4,4,1,1
273,273,w52f1872,Solid,0.0,2376.0,1,2,3,choice,3,-2,-3.0,4,4,3,3
274,274,w52f1872,Object,1.0,4385.0,0,3,3,choice,4,-3,-3.0,4,4,3,3
275,275,w52f1872,Large,0.0,1129.0,1,4,3,choice,2,-3,-3.0,4,4,1,1
276,276,w52f1872,Pattern,1.0,3137.0,1,1,4,choice,4,4,1.0,5,5,4,4
277,277,w52f1872,Sea,0.0,1988.0,1,2,4,choice,3,-1,-4.0,5,5,2,2
278,278,w52f1872,Large,1.0,5153.0,1,3,4,choice,2,1,1.0,5,5,2,2
279,279,w52f1872,Animal,0.0,1791.0,1,4,4,choice,1,-1,-1.0,5,5,1,1
280,280,w52f1872,Pattern,1.0,2648.0,1,1,5,choice,4,1,3.0,4,4,3,3
281,281,w52f1872,Sea,1.0,4359.0,1,2,5,choice,2,4,3.0,4,4,1,2
282,282,w52f1872,Object,1.0,2807.0,0,3,5,choice,3,-1,1.0,4,4,2,3
283,283,w52f1872,Large,0.0,971.0,0,4,5,choice,1,1,1.0,4,4,1,1
284,284,w52f1872,Solid,0.0,2239.0,1,1,7,choice,2,-4,2.0,1,1,0,0
285,285,w52f1872,Sea,1.0,1127.0,1,2,7,choice,1,2,-2.0,1,1,0,0
286,286,w52f1872,Small,0.0,3763.0,1,3,7,choice,4,-4,-1.0,1,1,0,0
287,287,w52f1872,Animal,1.0,973.0,0,4,7,choice,3,-3,-2.0,1,1,0,0
288,288,w8eb1000,Land,0.0,2430.0,0,1,1,choice,1,2,2.0,4,4,0,1
289,289,w8eb1000,Large,0.0,1636.0,1,2,1,choice,2,-3,-3.0,4,4,1,2
290,290,w8eb1000,Animal,1.0,1004.0,1,3,1,choice,3,2,1.0,4,4,2,3
291,291,w8eb1000,Solid,1.0,1440.0,1,4,1,choice,4,3,0.0,4,4,2,2
292,292,w8eb1000,Solid,1.0,6553.0,1,1,2,choice,4,1,2.0,5,5,3,3
293,293,w8eb1000,Animal,0.0,4865.0,0,2,2,choice,2,1,1.0,5,5,1,1
294,294,w8eb1000,Large,0.0,5646.0,0,3,2,choice,3,3,3.0,5,5,2,2
295,295,w8eb1000,Sea,0.0,2239.0,1,4,2,choice,1,-1,-1.0,5,5,1,1
296,296,w8eb1000,Solid,1.0,3806.0,0,1,3,choice,1,-2,-2.0,6,6,1,1
297,297,w8eb1000,Sea,1.0,3337.0,1,2,3,choice,4,1,0.0,6,6,4,4
298,298,w8eb1000,Small,1.0,5836.0,1,3,3,choice,3,2,1.0,6,6,3,3
299,299,w8eb1000,Object,0.0,3751.0,1,4,3,choice,2,-3,-3.0,6,6,2,2
300,300,w8eb1000,Pattern,0.0,4850.0,0,1,4,choice,4,1,-1.0,5,5,3,3
301,301,w8eb1000,Small,1.0,5192.0,1,2,4,choice,3,3,2.0,5,5,2,2
302,302,w8eb1000,Land,0.0,6812.0,1,3,4,choice,2,-2,-3.0,5,5,1,1
303,303,w8eb1000,Object,0.0,2596.0,1,4,4,choice,1,-1,-2.0,5,5,1,1
304,304,w8eb1000,Small,0.0,6750.0,0,1,5,choice,3,3,-2.0,5,5,3,3
305,305,w8eb1000,Land,1.0,6079.0,0,2,5,choice,1,-1,-2.0,5,5,1,1
306,306,w8eb1000,Pattern,0.0,4742.0,0,3,5,choice,4,1,-1.0,5,5,3,3
307,307,w8eb1000,Animal,1.0,2601.0,1,4,5,choice,2,4,-3.0,5,5,2,2
308,308,w8eb1000,Sea,0.0,6056.0,1,1,6,choice,1,-2,-2.0,5,5,1,1
309,309,w8eb1000,Pattern,1.0,5008.0,1,2,6,choice,2,3,1.0,5,5,2,2
310,310,w8eb1000,Small,0.0,4664.0,1,3,6,choice,4,-1,-1.0,5,5,3,3
311,311,w8eb1000,Object,0.0,2814.0,1,4,6,choice,3,-2,-2.0,5,5,2,2
312,312,w8eb1000,Large,0.0,4948.0,1,1,7,choice,3,-1,-5.0,4,4,2,3
313,313,w8eb1000,Animal,1.0,4792.0,1,2,7,choice,1,2,2.0,4,4,1,1
314,314,w8eb1000,Sea,1.0,3426.0,1,3,7,choice,4,4,3.0,4,4,2,3
315,315,w8eb1000,Pattern,1.0,3587.0,1,4,7,choice,2,1,1.0,4,4,2,3
316,316,w7606987,Small,0.0,2760.0,0,1,1,choice,1,2,-2.0,3,3,0,1
317,317,w7606987,Animal,1.0,1758.0,0,2,1,choice,3,-1,-1.0,3,3,2,3
318,318,w7606987,Solid,1.0,1433.0,1,3,1,choice,4,5,0.0,3,3,3,3
319,319,w7606987,Land,1.0,1007.0,1,4,1,choice,2,1,1.0,3,3,2,4
320,320,w7606987,Land,1.0,1756.0,0,1,2,choice,2,-1,-3.0,1,1,0,2
321,321,w7606987,Small,0.0,1272.0,0,2,2,choice,3,1,-2.0,1,1,0,0
322,322,w7606987,Object,1.0,3031.0,1,3,2,choice,4,2,0.0,1,1,0,2
323,323,w7606987,Pattern,1.0,1257.0,1,4,2,choice,1,1,-2.0,1,1,0,2
324,324,w7606987,Solid,0.0,1162.0,0,1,3,choice,3,2,0.0,6,6,0,0
325,325,w7606987,Object,0.0,1886.0,1,2,3,choice,4,-3,2.0,6,6,0,0
326,326,w7606987,Land,0.0,1539.0,0,3,3,choice,1,2,1.0,6,6,0,0
327,327,w7606987,Large,0.0,1487.0,1,4,3,choice,2,-4,3.0,6,6,0,0
328,328,w7606987,Sea,1.0,6763.0,0,1,4,choice,3,-1,-2.0,3,3,0,1
329,329,w7606987,Animal,0.0,3274.0,1,2,4,choice,1,-1,1.0,3,3,0,0
330,330,w7606987,Large,1.0,3054.0,1,3,4,choice,2,1,-1.0,3,3,1,2
331,331,w7606987,Pattern,1.0,1664.0,1,4,4,choice,4,1,0.0,3,3,2,2
332,332,w7606987,Object,0.0,2777.0,1,1,5,choice,3,-3,-1.0,2,2,1,1
333,333,w7606987,Pattern,0.0,1015.0,0,2,5,choice,4,2,-4.0,2,2,1,1
334,334,w7606987,Large,1.0,2139.0,0,3,5,choice,1,-2,-1.0,2,2,1,1
335,335,w7606987,Sea,1.0,2483.0,1,4,5,choice,2,1,1.0,2,2,1,1
336,336,w7606987,Object,1.0,2293.0,1,1,6,choice,1,1,-2.0,1,1,0,0
337,337,w7606987,Pattern,1.0,1607.0,0,2,6,choice,4,-3,-3.0,1,1,0,0
338,338,w7606987,Small,0.0,1944.0,1,3,6,choice,2,-3,-2.0,1,1,0,0
339,339,w7606987,Land,1.0,2514.0,0,4,6,choice,3,-1,-1.0,1,1,1,1
340,340,w7606987,Sea,1.0,911.0,0,1,7,choice,1,-1,-2.0,5,5,0,1
341,341,w7606987,Small,0.0,2003.0,0,2,7,choice,4,1,-2.0,5,5,0,0
342,342,w7606987,Animal,1.0,2406.0,1,3,7,choice,3,2,3.0,5,5,1,1
343,343,w7606987,Solid,1.0,2843.0,1,4,7,choice,2,3,1.0,5,5,0,0
344,344,w84e06f3,Land,1.0,1849.0,1,1,1,choice,4,2,2.0,5,5,3,3
345,345,w84e06f3,Pattern,0.0,6484.0,1,2,1,choice,3,-1,-1.0,5,5,3,3
346,346,w84e06f3,Small,,,0,3,1,choice,1,-2,-2.0,5,5,1,1
347,347,w84e06f3,Object,1.0,3464.0,1,4,1,choice,2,2,2.0,5,5,1,1
348,348,w84e06f3,Solid,1.0,3876.0,1,1,2,choice,4,4,4.0,5,5,3,3
349,349,w84e06f3,Sea,0.0,4556.0,0,2,2,choice,2,1,1.0,5,5,2,2
350,350,w84e06f3,Object,1.0,6186.0,0,3,2,choice,1,-2,-2.0,5,5,1,1
351,351,w84e06f3,Large,1.0,3993.0,1,4,2,choice,3,2,2.0,5,5,3,3
352,352,w84e06f3,Land,1.0,5726.0,1,1,3,choice,3,2,2.0,5,5,3,3
353,353,w84e06f3,Small,0.0,6308.0,1,2,3,choice,1,-1,-1.0,5,5,1,2
354,354,w84e06f3,Pattern,0.0,4613.0,1,3,3,choice,2,-1,-1.0,5,5,1,2
355,355,w84e06f3,Animal,,,0,4,3,choice,4,1,1.0,5,5,3,4
356,356,w84e06f3,Large,0.0,2304.0,1,1,4,choice,3,-2,-2.0,5,5,2,2
357,357,w84e06f3,Land,0.0,6946.0,0,2,4,choice,1,1,1.0,5,5,1,2
358,358,w84e06f3,Object,0.0,5049.0,0,3,4,choice,4,1,-1.0,5,5,3,3
359,359,w84e06f3,Pattern,1.0,1070.0,1,4,4,choice,2,2,2.0,5,5,1,1
360,360,w84e06f3,Animal,1.0,4529.0,1,1,5,choice,3,3,2.0,5,5,3,3
361,361,w84e06f3,Sea,0.0,5689.0,1,2,5,choice,2,-3,-2.0,5,5,2,2
362,362,w84e06f3,Pattern,0.0,3808.0,1,3,5,choice,1,-2,-1.0,5,5,1,1
363,363,w84e06f3,Small,1.0,1127.0,1,4,5,choice,4,1,2.0,5,5,4,4
364,364,w84e06f3,Large,1.0,2692.0,0,1,6,choice,2,-4,-3.0,4,4,1,1
365,365,w84e06f3,Solid,0.0,3909.0,0,2,6,choice,1,1,1.0,4,4,0,0
366,366,w84e06f3,Sea,0.0,2679.0,0,3,6,choice,3,1,-2.0,4,4,2,2
367,367,w84e06f3,Animal,1.0,2458.0,1,4,6,choice,4,3,1.0,4,4,2,2
368,368,w84e06f3,Animal,1.0,3671.0,1,1,7,choice,1,1,1.0,5,5,0,1
369,369,w84e06f3,Solid,0.0,3895.0,1,2,7,choice,2,-3,-3.0,5,5,2,2
370,370,w84e06f3,Land,1.0,1539.0,1,3,7,choice,3,1,1.0,5,5,2,2
371,371,w84e06f3,Small,0.0,2653.0,1,4,7,choice,4,-1,-1.0,5,5,3,4
372,412,we2b50c8,Solid,1.0,2830.0,0,1,1,choice,2,-1,0.0,4,4,2,2
373,413,we2b50c8,Large,0.0,3944.0,1,2,1,choice,1,-1,-2.0,4,4,0,1
374,414,we2b50c8,Sea,1.0,4339.0,0,3,1,choice,3,-1,-3.0,4,4,2,2
375,415,we2b50c8,Object,1.0,3995.0,1,4,1,choice,4,1,-2.0,4,4,2,2
376,416,we2b50c8,Solid,,,0,1,2,choice,4,-1,-3.0,3,3,3,3
377,417,we2b50c8,Large,0.0,251.0,1,2,2,choice,1,-1,-1.0,3,3,1,2
378,418,we2b50c8,Animal,1.0,914.0,1,3,2,choice,3,2,2.0,3,3,2,2
379,419,we2b50c8,Sea,0.0,3642.0,1,4,2,choice,2,-2,-3.0,3,3,2,3
380,420,we2b50c8,Pattern,0.0,4274.0,0,1,3,choice,3,2,-1.0,4,4,2,2
381,421,we2b50c8,Land,0.0,2776.0,1,2,3,choice,1,-1,-1.0,4,4,1,3
382,422,we2b50c8,Animal,1.0,1126.0,1,3,3,choice,2,3,3.0,4,4,2,3
383,423,we2b50c8,Large,1.0,2005.0,1,4,3,choice,4,1,1.0,4,4,4,4
384,424,we2b50c8,Pattern,0.0,3930.0,1,1,4,choice,3,-1,-1.0,2,2,1,2
385,425,we2b50c8,Small,1.0,1478.0,1,2,4,choice,1,1,1.0,2,2,0,2
386,426,we2b50c8,Animal,0.0,2035.0,1,3,4,choice,4,-1,-1.0,2,2,1,2
387,427,we2b50c8,Sea,1.0,4587.0,1,4,4,choice,2,2,2.0,2,2,0,1
388,428,we2b50c8,Solid,1.0,2109.0,1,1,5,choice,1,2,2.0,3,3,0,0
389,429,we2b50c8,Large,1.0,1102.0,0,2,5,choice,4,-1,-3.0,3,3,3,4
390,430,we2b50c8,Land,0.0,2588.0,0,3,5,choice,2,2,-1.0,3,3,1,2
391,431,we2b50c8,Object,1.0,1719.0,1,4,5,choice,3,1,-1.0,3,3,2,2
392,432,we2b50c8,Pattern,0.0,3301.0,1,1,6,choice,2,-1,-2.0,1,1,0,3
393,433,we2b50c8,Land,0.0,1821.0,1,2,6,choice,4,-5,-3.0,1,1,1,2
394,434,we2b50c8,Small,1.0,1090.0,1,3,6,choice,1,2,2.0,1,1,0,1
395,435,we2b50c8,Object,1.0,3471.0,0,4,6,choice,3,-3,1.0,1,1,0,1
396,436,we2b50c8,Solid,0.0,3334.0,0,1,7,choice,2,2,0.0,4,4,2,2
397,437,we2b50c8,Land,1.0,1513.0,1,2,7,choice,1,1,-1.0,4,4,1,1
398,438,we2b50c8,Small,1.0,3059.0,0,3,7,choice,4,-2,-1.0,4,4,3,3
399,439,we2b50c8,Object,0.0,3817.0,1,4,7,choice,3,-2,-5.0,4,4,3,3
400,440,w4077e51,Land,,,0,1,1,choice,3,2,2.0,3,3,2,4
401,441,w4077e51,Large,0.0,3395.0,0,2,1,choice,2,4,3.0,3,3,2,3
402,442,w4077e51,Solid,1.0,2717.0,0,3,1,choice,1,-2,-2.0,3,3,0,2
403,443,w4077e51,Animal,0.0,1808.0,1,4,1,choice,4,-1,-3.0,3,3,1,2
404,444,w4077e51,Pattern,1.0,2762.0,0,1,2,choice,1,-2,-1.0,5,5,1,2
405,445,w4077e51,Animal,0.0,6433.0,0,2,2,choice,4,1,1.0,5,5,3,4
406,446,w4077e51,Small,0.0,1191.0,1,3,2,choice,3,-4,-4.0,5,5,3,4
407,447,w4077e51,Sea,1.0,1340.0,1,4,2,choice,2,1,-1.0,5,5,1,2
408,448,w4077e51,Pattern,1.0,1208.0,1,1,3,choice,3,2,1.0,5,5,3,3
409,449,w4077e51,Object,0.0,5571.0,1,2,3,choice,4,-3,-2.0,5,5,3,3
410,450,w4077e51,Land,1.0,1647.0,0,3,3,choice,2,-1,1.0,5,5,1,2
411,451,w4077e51,Large,0.0,1163.0,1,4,3,choice,1,-1,-2.0,5,5,1,1
412,452,w4077e51,Solid,1.0,2250.0,1,1,4,choice,3,1,4.0,4,4,2,3
413,453,w4077e51,Land,1.0,1119.0,1,2,4,choice,1,1,2.0,4,4,1,2
414,454,w4077e51,Small,0.0,1432.0,1,3,4,choice,2,-3,0.0,4,4,1,3
415,455,w4077e51,Animal,1.0,2248.0,0,4,4,choice,4,-4,3.0,4,4,2,3
416,456,w4077e51,Large,0.0,4194.0,1,1,5,choice,2,-1,-1.0,5,5,2,2
417,457,w4077e51,Solid,1.0,1467.0,1,2,5,choice,3,1,1.0,5,5,2,3
418,458,w4077e51,Sea,1.0,5172.0,1,3,5,choice,1,2,2.0,5,5,1,2
419,459,w4077e51,Object,1.0,1148.0,0,4,5,choice,4,-3,-2.0,5,5,4,4
420,460,w4077e51,Large,0.0,1332.0,1,1,6,choice,2,-4,-4.0,3,3,2,3
421,461,w4077e51,Object,1.0,1667.0,1,2,6,choice,1,1,1.0,3,3,0,2
422,462,w4077e51,Pattern,1.0,1076.0,1,3,6,choice,4,3,2.0,3,3,2,4
423,463,w4077e51,Land,0.0,1691.0,1,4,6,choice,3,-2,-2.0,3,3,3,6
424,464,w4077e51,Small,1.0,3222.0,0,1,7,choice,1,-1,-1.0,4,4,1,2
425,465,w4077e51,Sea,0.0,2606.0,0,2,7,choice,3,2,-3.0,4,4,2,3
426,466,w4077e51,Pattern,1.0,742.0,0,3,7,choice,4,-2,-5.0,4,4,3,4
427,467,w4077e51,Animal,1.0,3919.0,0,4,7,choice,2,-2,-2.0,4,4,1,3
428,468,w44b0e2d,Land,,,0,1,1,choice,4,-1,3.0,6,6,4,4
429,469,w44b0e2d,Small,1.0,7472.0,1,2,1,choice,1,1,1.0,6,6,1,1
430,470,w44b0e2d,Object,0.0,5114.0,1,3,1,choice,2,-1,-1.0,6,6,2,2
431,471,w44b0e2d,Pattern,1.0,5754.0,0,4,1,choice,3,-2,2.0,6,6,3,3
432,472,w44b0e2d,Solid,,,0,1,2,choice,4,-1,-1.0,5,5,3,3
433,473,w44b0e2d,Sea,1.0,3386.0,0,2,2,choice,2,-1,-1.0,5,5,1,1
434,474,w44b0e2d,Object,1.0,3862.0,1,3,2,choice,1,1,1.0,5,5,1,1
435,475,w44b0e2d,Large,0.0,1429.0,1,4,2,choice,3,-2,-2.0,5,5,2,3
436,476,w44b0e2d,Pattern,0.0,3631.0,0,1,3,choice,2,1,1.0,6,6,2,2
437,477,w44b0e2d,Animal,1.0,1197.0,1,2,3,choice,4,4,5.0,6,6,4,4
438,478,w44b0e2d,Small,1.0,3758.0,0,3,3,choice,1,-1,-1.0,6,6,1,1
439,479,w44b0e2d,Land,1.0,2655.0,0,4,3,choice,3,-1,0.0,6,6,3,3
440,480,w44b0e2d,Object,0.0,3334.0,1,1,4,choice,4,-2,-5.0,5,5,3,3
441,481,w44b0e2d,Land,0.0,4220.0,1,2,4,choice,1,-1,-1.0,5,5,1,2
442,482,w44b0e2d,Pattern,0.0,1677.0,1,3,4,choice,2,-3,-3.0,5,5,2,2
443,483,w44b0e2d,Large,0.0,1985.0,0,4,4,choice,3,1,-2.0,5,5,3,3
444,484,w44b0e2d,Small,1.0,3258.0,1,1,5,choice,4,1,1.0,6,6,4,4
445,485,w44b0e2d,Pattern,0.0,2474.0,1,2,5,choice,1,-1,-1.0,6,6,1,1
446,486,w44b0e2d,Animal,1.0,2254.0,1,3,5,choice,3,2,2.0,6,6,3,3
447,487,w44b0e2d,Sea,1.0,4288.0,0,4,5,choice,2,-3,-3.0,6,6,2,2
448,488,w44b0e2d,Animal,0.0,1970.0,0,1,6,choice,4,3,-3.0,6,6,4,4
449,489,w44b0e2d,Solid,1.0,2258.0,1,2,6,choice,1,1,1.0,6,6,1,1
450,490,w44b0e2d,Large,1.0,3967.0,0,3,6,choice,2,-2,-2.0,6,6,2,2
451,491,w44b0e2d,Sea,0.0,789.0,0,4,6,choice,3,2,-2.0,6,6,3,3
452,492,w44b0e2d,Animal,1.0,2621.0,1,1,7,choice,1,2,2.0,6,6,1,1
453,493,w44b0e2d,Land,1.0,3835.0,1,2,7,choice,3,2,2.0,6,6,3,3
454,494,w44b0e2d,Small,0.0,2737.0,0,3,7,choice,4,2,2.0,6,6,4,4
455,495,w44b0e2d,Solid,1.0,3178.0,0,4,7,choice,2,-1,-1.0,6,6,2,2
456,496,we6483ae,Object,1.0,4880.0,1,1,1,choice,4,1,-2.0,4,4,4,5
457,497,we6483ae,Solid,1.0,2352.0,0,2,1,choice,2,-1,1.0,4,4,1,1
458,498,we6483ae,Sea,1.0,2041.0,0,3,1,choice,3,-1,-1.0,4,4,3,3
459,499,we6483ae,Large,1.0,3126.0,0,4,1,choice,1,-1,-2.0,4,4,1,2
460,500,we6483ae,Sea,1.0,4144.0,1,1,2,choice,2,2,2.0,4,4,2,2
461,501,we6483ae,Solid,1.0,1676.0,0,2,2,choice,4,-2,-1.0,4,4,2,2
462,502,we6483ae,Large,0.0,2337.0,0,3,2,choice,1,1,1.0,4,4,1,1
463,503,we6483ae,Animal,0.0,2809.0,1,4,2,choice,3,-3,-3.0,4,4,2,2
464,504,we6483ae,Animal,0.0,792.0,1,1,3,choice,2,-3,-3.0,3,3,2,3
465,505,we6483ae,Pattern,1.0,396.0,0,2,3,choice,3,-1,-2.0,3,3,2,5
466,506,we6483ae,Large,0.0,354.0,0,3,3,choice,4,1,0.0,3,3,3,4
467,507,we6483ae,Land,1.0,700.0,1,4,3,choice,1,2,2.0,3,3,0,3
468,508,we6483ae,Small,0.0,3686.0,1,1,4,choice,1,-2,-1.0,3,3,0,2
469,509,we6483ae,Sea,1.0,1927.0,1,2,4,choice,2,4,-4.0,3,3,1,4
470,510,we6483ae,Animal,1.0,780.0,0,3,4,choice,4,-3,1.0,3,3,2,3
471,511,we6483ae,Pattern,1.0,2329.0,1,4,4,choice,3,3,-1.0,3,3,2,3
472,512,we6483ae,Object,1.0,3113.0,1,1,5,choice,3,2,2.0,6,6,3,3
473,513,we6483ae,Solid,1.0,1563.0,1,2,5,choice,1,2,2.0,6,6,1,1
474,514,we6483ae,Large,1.0,1477.0,1,3,5,choice,4,4,4.0,6,6,4,4
475,515,we6483ae,Land,0.0,4646.0,1,4,5,choice,2,-4,-2.0,6,6,2,2
476,516,we6483ae,Pattern,0.0,1800.0,1,1,6,choice,2,-3,-3.0,4,4,2,4
477,517,we6483ae,Small,1.0,1517.0,1,2,6,choice,1,2,1.0,4,4,0,2
478,518,we6483ae,Land,0.0,1642.0,1,3,6,choice,4,-2,-4.0,4,4,3,4
479,519,we6483ae,Object,1.0,1140.0,1,4,6,choice,3,1,2.0,4,4,2,2
480,520,we6483ae,Small,0.0,1916.0,0,1,7,choice,4,1,2.0,5,5,3,3
481,521,we6483ae,Object,1.0,2090.0,1,2,7,choice,3,3,2.0,5,5,2,3
482,522,we6483ae,Solid,1.0,1808.0,0,3,7,choice,2,-2,0.0,5,5,1,1
483,523,we6483ae,Land,0.0,1364.0,1,4,7,choice,1,-1,-1.0,5,5,0,1
484,524,w37d3a90,Land,,,0,1,1,choice,2,4,3.0,3,3,1,4
485,525,w37d3a90,Small,0.0,4239.0,0,2,1,choice,1,2,1.0,3,3,0,0
486,526,w37d3a90,Animal,1.0,3251.0,0,3,1,choice,3,-1,-1.0,3,3,2,3
487,527,w37d3a90,Solid,0.0,5524.0,0,4,1,choice,4,1,0.0,3,3,3,4
488,528,w37d3a90,Animal,1.0,3111.0,0,1,2,choice,2,-2,0.0,6,6,2,2
489,529,w37d3a90,Sea,1.0,4239.0,1,2,2,choice,1,1,1.0,6,6,1,1
490,530,w37d3a90,Pattern,0.0,6833.0,0,3,2,choice,4,2,2.0,6,6,4,4
491,531,w37d3a90,Large,0.0,3653.0,0,4,2,choice,3,1,1.0,6,6,3,3
492,532,w37d3a90,Sea,1.0,4404.0,1,1,3,choice,3,1,1.0,6,6,3,3
493,533,w37d3a90,Small,1.0,5277.0,1,2,3,choice,4,1,1.0,6,6,4,4
494,534,w37d3a90,Solid,1.0,6857.0,1,3,3,choice,2,3,3.0,6,6,2,2
495,535,w37d3a90,Animal,0.0,4861.0,1,4,3,choice,1,-1,-1.0,6,6,1,1
496,536,w37d3a90,Solid,0.0,4034.0,0,1,4,choice,3,2,0.0,5,5,3,4
497,537,w37d3a90,Land,0.0,2728.0,1,2,4,choice,1,-1,-1.0,5,5,1,2
498,538,w37d3a90,Large,0.0,3838.0,1,3,4,choice,4,-2,1.0,5,5,3,3
499,539,w37d3a90,Object,1.0,4026.0,1,4,4,choice,2,3,1.0,5,5,2,2
500,540,w37d3a90,Land,0.0,4158.0,0,1,5,choice,1,1,2.0,5,5,1,1
501,541,w37d3a90,Pattern,0.0,5106.0,0,2,5,choice,3,1,0.0,5,5,2,3
502,542,w37d3a90,Animal,1.0,6131.0,0,3,5,choice,4,-2,6.0,5,5,4,5
503,543,w37d3a90,Small,0.0,5571.0,1,4,5,choice,2,-3,0.0,5,5,2,3
504,544,w37d3a90,Solid,1.0,6439.0,1,1,6,choice,3,2,1.0,6,6,3,3
505,545,w37d3a90,Large,0.0,3728.0,1,2,6,choice,2,-2,0.0,6,6,2,2
506,546,w37d3a90,Land,0.0,5993.0,0,3,6,choice,4,1,2.0,6,6,4,4
507,547,w37d3a90,Object,0.0,6908.0,1,4,6,choice,1,-1,-1.0,6,6,1,1
508,548,w37d3a90,Pattern,1.0,5619.0,1,1,7,choice,4,1,3.0,6,6,4,4
509,549,w37d3a90,Sea,0.0,6829.0,0,2,7,choice,1,1,1.0,6,6,1,1
510,550,w37d3a90,Object,0.0,5205.0,1,3,7,choice,3,-3,-1.0,6,6,3,3
511,551,w37d3a90,Large,0.0,4866.0,0,4,7,choice,2,1,1.0,6,6,2,2
512,552,w108c7bf,Large,,,0,1,1,choice,2,-1,-1.0,5,5,2,2
513,553,w108c7bf,Land,0.0,54.0,0,2,1,choice,3,1,1.0,5,5,3,3
514,554,w108c7bf,Solid,1.0,2455.0,0,3,1,choice,1,-2,-1.0,5,5,0,0
515,555,w108c7bf,Animal,0.0,4591.0,1,4,1,choice,4,-4,-3.0,5,5,3,3
516,556,w108c7bf,Sea,1.0,2340.0,0,1,2,choice,2,-1,-1.0,3,3,1,1
517,557,w108c7bf,Small,1.0,1692.0,1,2,2,choice,3,1,4.0,3,3,2,2
518,558,w108c7bf,Animal,1.0,3351.0,0,3,2,choice,4,-1,0.0,3,3,1,1
519,559,w108c7bf,Pattern,0.0,691.0,1,4,2,choice,1,-1,2.0,3,3,1,1
520,560,w108c7bf,Large,0.0,2451.0,0,1,3,choice,1,1,1.0,3,3,1,1
521,561,w108c7bf,Object,1.0,2101.0,1,2,3,choice,4,4,4.0,3,3,2,2
522,562,w108c7bf,Land,1.0,3493.0,1,3,3,choice,2,1,1.0,3,3,0,0
523,563,w108c7bf,Pattern,0.0,2342.0,1,4,3,choice,3,-2,-2.0,3,3,2,2
524,564,w108c7bf,Small,1.0,1694.0,1,1,4,choice,2,3,3.0,5,5,2,2
525,565,w108c7bf,Animal,1.0,2833.0,0,2,4,choice,4,-1,0.0,5,5,3,3
526,566,w108c7bf,Solid,0.0,2909.0,1,3,4,choice,3,-3,-3.0,5,5,2,2
527,567,w108c7bf,Land,1.0,3057.0,1,4,4,choice,1,1,1.0,5,5,1,1
528,568,w108c7bf,Large,0.0,1170.0,1,1,5,choice,2,-1,0.0,4,4,1,1
529,569,w108c7bf,Solid,0.0,1932.0,1,2,5,choice,3,-3,-3.0,4,4,2,2
530,570,w108c7bf,Object,1.0,2925.0,0,3,5,choice,4,-1,0.0,4,4,3,3
531,571,w108c7bf,Sea,1.0,1006.0,1,4,5,choice,1,1,1.0,4,4,0,1
532,572,w108c7bf,Pattern,1.0,2338.0,1,1,6,choice,4,3,3.0,5,5,3,3
533,573,w108c7bf,Object,0.0,2466.0,0,2,6,choice,1,1,1.0,5,5,1,1
534,574,w108c7bf,Land,0.0,2420.0,1,3,6,choice,3,-2,-2.0,5,5,3,3
535,575,w108c7bf,Large,0.0,1769.0,1,4,6,choice,2,-4,-4.0,5,5,2,2
536,576,w108c7bf,Pattern,0.0,2197.0,1,1,7,choice,4,-1,2.0,4,4,3,3
537,577,w108c7bf,Animal,1.0,1951.0,1,2,7,choice,2,2,2.0,4,4,1,1
538,578,w108c7bf,Sea,1.0,1982.0,1,3,7,choice,3,1,3.0,4,4,3,3
539,579,w108c7bf,Small,1.0,1104.0,1,4,7,choice,1,1,1.0,4,4,0,0
540,580,w2e6acfb,Animal,,,0,1,1,choice,3,-1,-2.0,1,1,0,2
541,581,w2e6acfb,Pattern,0.0,2933.0,0,2,1,choice,1,2,2.0,1,1,0,3
542,582,w2e6acfb,Land,0.0,3894.0,0,3,1,choice,4,1,4.0,1,1,0,2
543,583,w2e6acfb,Small,1.0,2350.0,1,4,1,choice,2,1,1.0,1,1,0,3
544,584,w2e6acfb,Animal,1.0,3608.0,0,1,2,choice,2,-3,-1.0,3,3,1,2
545,585,w2e6acfb,Small,1.0,3410.0,1,2,2,choice,4,1,2.0,3,3,1,1
546,586,w2e6acfb,Sea,0.0,2114.0,1,3,2,choice,3,-1,-2.0,3,3,1,1
547,587,w2e6acfb,Pattern,1.0,2250.0,0,4,2,choice,1,-1,1.0,3,3,1,1
548,588,w2e6acfb,Animal,1.0,2491.0,0,1,3,choice,3,-1,2.0,3,3,1,2
549,589,w2e6acfb,Sea,1.0,3636.0,1,2,3,choice,2,1,4.0,3,3,2,3
550,590,w2e6acfb,Solid,1.0,3725.0,1,3,3,choice,1,2,-1.0,3,3,0,1
551,591,w2e6acfb,Large,1.0,1541.0,0,4,3,choice,4,-3,0.0,3,3,2,2
552,592,w2e6acfb,Large,0.0,2214.0,0,1,4,choice,4,2,0.0,4,4,3,3
553,593,w2e6acfb,Solid,1.0,3401.0,0,2,4,choice,1,-1,-1.0,4,4,0,1
554,594,w2e6acfb,Sea,1.0,1811.0,0,3,4,choice,3,-1,-1.0,4,4,3,5
555,595,w2e6acfb,Object,1.0,1991.0,1,4,4,choice,2,2,0.0,4,4,2,4
556,596,w2e6acfb,Object,1.0,4937.0,1,1,5,choice,4,1,6.0,1,1,1,2
557,597,w2e6acfb,Land,1.0,3581.0,0,2,5,choice,3,-2,4.0,1,1,0,1
558,598,w2e6acfb,Pattern,0.0,3706.0,0,3,5,choice,2,2,2.0,1,1,1,5
559,599,w2e6acfb,Large,0.0,1962.0,0,4,5,choice,1,1,1.0,1,1,1,3
560,600,w2e6acfb,Land,0.0,1411.0,1,1,6,choice,4,-1,3.0,4,4,3,3
561,601,w2e6acfb,Object,1.0,1068.0,1,2,6,choice,1,1,1.0,4,4,1,2
562,602,w2e6acfb,Solid,0.0,2349.0,0,3,6,choice,3,2,5.0,4,4,2,3
563,603,w2e6acfb,Small,1.0,1006.0,0,4,6,choice,2,-1,2.0,4,4,1,3
564,604,w2e6acfb,Animal,0.0,2163.0,1,1,7,choice,4,-1,0.0,6,6,4,4
565,605,w2e6acfb,Land,0.0,3546.0,0,2,7,choice,1,2,-1.0,6,6,1,1
566,606,w2e6acfb,Large,1.0,756.0,0,3,7,choice,3,-3,1.0,6,6,3,3
567,607,w2e6acfb,Solid,1.0,1005.0,0,4,7,choice,2,-1,3.0,6,6,2,2
568,608,w496515d,Animal,0.0,6246.0,0,1,1,choice,3,2,1.0,2,2,1,2
569,609,w496515d,Solid,1.0,3483.0,1,2,1,choice,4,3,2.0,2,2,1,2
570,610,w496515d,Large,0.0,3497.0,1,3,1,choice,2,-2,0.0,2,2,1,2
571,611,w496515d,Land,1.0,1200.0,1,4,1,choice,1,2,1.0,2,2,0,4
572,612,w496515d,Large,,,0,1,2,choice,3,-3,0.0,5,5,2,2
573,613,w496515d,Solid,1.0,1602.0,1,2,2,choice,4,1,4.0,5,5,3,3
574,614,w496515d,Sea,1.0,5179.0,1,3,2,choice,1,1,1.0,5,5,1,2
575,615,w496515d,Animal,1.0,940.0,0,4,2,choice,2,-1,-1.0,5,5,1,2
576,616,w496515d,Solid,1.0,2318.0,0,1,3,choice,1,-2,-1.0,4,4,1,2
577,617,w496515d,Sea,1.0,2932.0,0,2,3,choice,4,-3,0.0,4,4,3,3
578,618,w496515d,Small,1.0,1592.0,1,3,3,choice,3,2,1.0,4,4,1,2
579,619,w496515d,Object,1.0,3297.0,0,4,3,choice,2,-1,0.0,4,4,2,4
580,620,w496515d,Land,1.0,3207.0,0,1,4,choice,2,-2,0.0,3,3,1,2
581,621,w496515d,Small,0.0,2084.0,1,2,4,choice,3,-1,1.0,3,3,2,4
582,622,w496515d,Object,1.0,3180.0,0,3,4,choice,1,-1,-1.0,3,3,1,3
583,623,w496515d,Pattern,0.0,1912.0,0,4,4,choice,4,1,-1.0,3,3,2,4
584,624,w496515d,Land,1.0,2531.0,1,1,5,choice,1,1,-1.0,3,3,1,3
585,625,w496515d,Pattern,1.0,4509.0,1,2,5,choice,4,1,0.0,3,3,3,6
586,626,w496515d,Small,1.0,2059.0,0,3,5,choice,3,-1,-1.0,3,3,3,4
587,627,w496515d,Animal,1.0,1896.0,0,4,5,choice,2,-2,-2.0,3,3,1,3
588,628,w496515d,Small,1.0,2095.0,0,1,6,choice,4,-4,3.0,2,2,2,4
589,629,w496515d,Pattern,0.0,793.0,0,2,6,choice,2,1,2.0,2,2,1,4
590,630,w496515d,Sea,1.0,2101.0,0,3,6,choice,1,-2,2.0,2,2,0,3
591,631,w496515d,Object,1.0,872.0,0,4,6,choice,3,-5,2.0,2,2,2,3
592,632,w496515d,Sea,1.0,1524.0,1,1,7,choice,4,3,3.0,5,5,4,4
593,633,w496515d,Animal,1.0,2827.0,0,2,7,choice,1,-1,2.0,5,5,1,2
594,634,w496515d,Large,0.0,1900.0,1,3,7,choice,3,-1,-3.0,5,5,2,3
595,635,w496515d,Pattern,1.0,1742.0,0,4,7,choice,2,-1,0.0,5,5,2,2
596,636,wa0cc687,Land,1.0,3129.0,0,1,1,choice,2,-1,0.0,2,2,1,1
597,637,wa0cc687,Small,1.0,3573.0,1,2,1,choice,1,1,1.0,2,2,1,1
598,638,wa0cc687,Solid,0.0,1810.0,1,3,1,choice,4,-1,-1.0,2,2,2,3
599,639,wa0cc687,Animal,1.0,1093.0,0,4,1,choice,3,-2,0.0,2,2,1,1
600,640,wa0cc687,Pattern,0.0,2940.0,1,1,2,choice,1,-1,-1.0,2,2,0,0
601,641,wa0cc687,Land,1.0,2857.0,0,2,2,choice,2,-2,0.0,2,2,0,1
602,642,wa0cc687,Object,1.0,2349.0,1,3,2,choice,4,1,3.0,2,2,1,1
603,643,wa0cc687,Small,1.0,1830.0,1,4,2,choice,3,1,2.0,2,2,1,1
604,644,wa0cc687,Large,0.0,2568.0,0,1,3,choice,2,1,-1.0,2,2,0,1
605,645,wa0cc687,Solid,1.0,1952.0,1,2,3,choice,3,1,-3.0,2,2,0,1
606,646,wa0cc687,Object,1.0,2451.0,0,3,3,choice,4,-3,-5.0,2,2,1,2
607,647,wa0cc687,Land,0.0,1444.0,0,4,3,choice,1,1,1.0,2,2,0,1
608,648,wa0cc687,Large,1.0,3712.0,0,1,4,choice,2,-3,-1.0,2,2,1,2
609,649,wa0cc687,Sea,0.0,1403.0,0,2,4,choice,3,1,-2.0,2,2,1,2
610,650,wa0cc687,Pattern,1.0,1331.0,0,3,4,choice,4,-2,-3.0,2,2,1,2
611,651,wa0cc687,Animal,0.0,2137.0,1,4,4,choice,1,-2,-2.0,2,2,0,0
612,652,wa0cc687,Sea,0.0,1741.0,1,1,5,choice,2,-2,-3.0,2,2,0,2
613,653,wa0cc687,Object,1.0,810.0,1,2,5,choice,3,3,-1.0,2,2,2,4
614,654,wa0cc687,Large,1.0,2088.0,1,3,5,choice,1,1,-1.0,2,2,1,2
615,655,wa0cc687,Pattern,0.0,1449.0,1,4,5,choice,4,-1,-2.0,2,2,1,2
616,656,wa0cc687,Land,0.0,1175.0,0,1,6,choice,3,3,2.0,2,2,1,3
617,657,wa0cc687,Small,1.0,888.0,1,2,6,choice,2,4,3.0,2,2,2,4
618,658,wa0cc687,Pattern,1.0,2292.0,1,3,6,choice,4,1,0.0,2,2,2,3
619,659,wa0cc687,Object,0.0,2604.0,1,4,6,choice,1,-1,-1.0,2,2,0,2
620,660,we07eba7,Small,,,0,1,1,choice,1,-2,-2.0,5,5,1,1
621,661,we07eba7,Land,1.0,2866.0,1,2,1,choice,4,4,-3.0,5,5,3,3
622,662,we07eba7,Object,0.0,3718.0,0,3,1,choice,2,4,-3.0,5,5,1,1
623,663,we07eba7,Pattern,1.0,4149.0,1,4,1,choice,3,1,2.0,5,5,3,3
624,664,we07eba7,Solid,1.0,2505.0,0,1,2,choice,4,-1,0.0,4,4,4,4
625,665,we07eba7,Sea,1.0,3097.0,0,2,2,choice,2,-1,0.0,4,4,1,1
626,666,we07eba7,Object,1.0,2958.0,1,3,2,choice,1,2,2.0,4,4,1,1
627,667,we07eba7,Large,0.0,2471.0,1,4,2,choice,3,-2,-1.0,4,4,3,3
628,668,we07eba7,Pattern,1.0,4731.0,1,1,3,choice,2,3,0.0,5,5,2,3
629,669,we07eba7,Small,0.0,1488.0,1,2,3,choice,1,-2,-1.0,5,5,1,2
630,670,we07eba7,Animal,1.0,3651.0,0,3,3,choice,4,-1,2.0,5,5,4,5
631,671,we07eba7,Land,1.0,3075.0,0,4,3,choice,3,-3,2.0,5,5,3,3
632,672,we07eba7,Land,1.0,3037.0,1,1,4,choice,1,2,1.0,2,2,1,3
633,673,we07eba7,Pattern,1.0,2608.0,1,2,4,choice,2,1,2.0,2,2,1,3
634,674,we07eba7,Large,0.0,1421.0,1,3,4,choice,3,-2,-3.0,2,2,1,3
635,675,we07eba7,Object,1.0,911.0,0,4,4,choice,4,-2,-2.0,2,2,2,3
636,676,we07eba7,Animal,0.0,4783.0,1,1,5,choice,3,-1,2.0,3,3,1,2
637,677,we07eba7,Small,0.0,1739.0,0,2,5,choice,4,3,7.0,3,3,1,3
638,678,we07eba7,Sea,0.0,3288.0,0,3,5,choice,2,3,4.0,3,3,1,2
639,679,we07eba7,Pattern,1.0,3003.0,1,4,5,choice,1,1,2.0,3,3,1,3
640,680,we07eba7,Solid,1.0,2265.0,0,1,6,choice,1,-1,-2.0,4,4,1,3
641,681,we07eba7,Sea,0.0,2371.0,1,2,6,choice,3,-4,-6.0,4,4,2,2
642,682,we07eba7,Large,1.0,2550.0,0,3,6,choice,2,-1,-1.0,4,4,1,2
643,683,we07eba7,Animal,1.0,2749.0,1,4,6,choice,4,1,-1.0,4,4,2,4
644,684,we07eba7,Animal,1.0,4784.0,0,1,7,choice,1,-2,1.0,3,3,1,2
645,685,we07eba7,Solid,1.0,2270.0,1,2,7,choice,2,3,2.0,3,3,1,1
646,686,we07eba7,Land,0.0,668.0,1,3,7,choice,3,-3,0.0,3,3,3,5
647,687,we07eba7,Small,1.0,1630.0,0,4,7,choice,4,-1,1.0,3,3,2,3
648,688,w93de42b,Small,1.0,4022.0,1,1,1,choice,1,2,2.0,6,6,1,1
649,689,w93de42b,Land,,,0,2,1,choice,4,-1,2.0,6,6,4,4
650,690,w93de42b,Pattern,1.0,4065.0,0,3,1,choice,3,-3,0.0,6,6,3,3
651,691,w93de42b,Object,1.0,5991.0,1,4,1,choice,2,2,2.0,6,6,2,2
652,692,w93de42b,Sea,0.0,3950.0,1,1,2,choice,2,-3,-3.0,5,5,1,1
653,693,w93de42b,Solid,0.0,5206.0,0,2,2,choice,4,2,0.0,5,5,3,3
654,694,w93de42b,Large,0.0,2236.0,0,3,2,choice,3,3,-1.0,5,5,2,2
655,695,w93de42b,Object,1.0,5638.0,1,4,2,choice,1,2,1.0,5,5,1,1
656,696,w93de42b,Animal,0.0,2668.0,0,1,3,choice,4,3,1.0,4,4,3,3
657,697,w93de42b,Land,1.0,6075.0,1,2,3,choice,3,2,1.0,4,4,2,2
658,698,w93de42b,Pattern,0.0,5272.0,1,3,3,choice,2,-3,-3.0,4,4,2,2
659,699,w93de42b,Small,1.0,5789.0,1,4,3,choice,1,2,1.0,4,4,0,0
660,700,w93de42b,Pattern,1.0,5097.0,0,1,4,choice,2,-1,2.0,5,5,2,2
661,701,w93de42b,Large,0.0,1972.0,1,2,4,choice,3,-5,-2.0,5,5,2,2
662,702,w93de42b,Land,1.0,2826.0,1,3,4,choice,1,1,1.0,5,5,1,1
663,703,w93de42b,Object,0.0,3180.0,1,4,4,choice,4,-2,1.0,5,5,4,4
664,704,w93de42b,Animal,1.0,5387.0,1,1,5,choice,3,1,-1.0,3,3,1,1
665,705,w93de42b,Sea,1.0,5845.0,1,2,5,choice,2,2,2.0,3,3,2,3
666,706,w93de42b,Pattern,0.0,3560.0,0,3,5,choice,1,1,1.0,3,3,1,1
667,707,w93de42b,Small,1.0,3837.0,0,4,5,choice,4,-1,-1.0,3,3,2,2
668,708,w93de42b,Solid,1.0,2818.0,0,1,6,choice,1,-1,1.0,2,2,0,0
669,709,w93de42b,Large,0.0,3433.0,0,2,6,choice,2,3,1.0,2,2,1,1
670,710,w93de42b,Sea,1.0,3375.0,0,3,6,choice,3,-1,-2.0,2,2,0,0
671,711,w93de42b,Animal,1.0,2076.0,1,4,6,choice,4,2,0.0,2,2,1,1
672,712,wa88aaed,Solid,,,0,1,1,choice,4,-1,1.0,5,5,4,4
673,713,wa88aaed,Large,1.0,4975.0,1,2,1,choice,2,3,4.0,5,5,2,2
674,714,wa88aaed,Land,0.0,4952.0,1,3,1,choice,1,-1,-1.0,5,5,1,1
675,715,wa88aaed,Animal,0.0,1504.0,1,4,1,choice,3,-4,-3.0,5,5,2,2
676,716,wa88aaed,Sea,0.0,1924.0,0,1,2,choice,1,1,1.0,4,4,1,1
677,717,wa88aaed,Large,0.0,4133.0,1,2,2,choice,3,-2,6.0,4,4,3,3
678,718,wa88aaed,Solid,1.0,1466.0,0,3,2,choice,4,-2,6.0,4,4,3,4
679,719,wa88aaed,Animal,0.0,2974.0,1,4,2,choice,2,-3,4.0,4,4,2,3
680,720,wa88aaed,Small,1.0,2942.0,1,1,3,choice,3,1,0.0,2,2,1,2
681,721,wa88aaed,Solid,1.0,3716.0,0,2,3,choice,1,-2,0.0,2,2,1,2
682,722,wa88aaed,Sea,0.0,1642.0,1,3,3,choice,4,-1,0.0,2,2,1,2
683,723,wa88aaed,Object,1.0,2432.0,0,4,3,choice,2,-4,0.0,2,2,1,2
684,724,wa88aaed,Land,0.0,2968.0,0,1,4,choice,2,1,0.0,4,4,2,2
685,725,wa88aaed,Object,0.0,2554.0,1,2,4,choice,1,-1,-2.0,4,4,1,1
686,726,wa88aaed,Small,1.0,2610.0,1,3,4,choice,3,3,5.0,4,4,2,2
687,727,wa88aaed,Pattern,0.0,2033.0,0,4,4,choice,4,2,3.0,4,4,2,2
688,728,wa88aaed,Land,0.0,3608.0,1,1,5,choice,1,-1,-2.0,4,4,1,3
689,729,wa88aaed,Animal,1.0,3986.0,1,2,5,choice,2,1,1.0,4,4,2,2
690,730,wa88aaed,Small,0.0,3566.0,1,3,5,choice,3,-1,-4.0,4,4,2,3
691,731,wa88aaed,Pattern,0.0,1634.0,0,4,5,choice,4,1,-2.0,4,4,2,3
692,732,wa88aaed,Object,0.0,3552.0,0,1,6,choice,3,1,1.0,4,4,2,2
693,733,wa88aaed,Small,1.0,1556.0,1,2,6,choice,4,2,2.0,4,4,3,4
694,734,wa88aaed,Pattern,0.0,2591.0,1,3,6,choice,2,-4,-4.0,4,4,2,2
695,735,wa88aaed,Sea,1.0,1314.0,1,4,6,choice,1,2,1.0,4,4,1,2
696,736,wa88aaed,Large,1.0,4331.0,1,1,7,choice,3,1,2.0,5,5,3,3
697,737,wa88aaed,Animal,0.0,2277.0,1,2,7,choice,1,-1,2.0,5,5,1,1
698,738,wa88aaed,Sea,0.0,1926.0,1,3,7,choice,4,-3,1.0,5,5,3,3
699,739,wa88aaed,Pattern,1.0,1952.0,1,4,7,choice,2,1,1.0,5,5,1,1
700,740,w4140fe6,Animal,1.0,2003.0,1,1,1,choice,3,2,2.0,3,3,1,2
701,741,w4140fe6,Large,0.0,1368.0,1,2,1,choice,2,-1,-3.0,3,3,1,3
702,742,w4140fe6,Land,1.0,1211.0,1,3,1,choice,1,2,2.0,3,3,0,1
703,743,w4140fe6,Solid,1.0,2756.0,1,4,1,choice,4,3,4.0,3,3,2,2
704,744,w4140fe6,Solid,1.0,1602.0,0,1,2,choice,4,-3,0.0,2,2,1,1
705,745,w4140fe6,Animal,1.0,2518.0,1,2,2,choice,2,3,-3.0,2,2,0,0
706,746,w4140fe6,Large,0.0,1113.0,0,3,2,choice,3,2,-2.0,2,2,0,0
707,747,w4140fe6,Sea,0.0,1515.0,1,4,2,choice,1,-2,2.0,2,2,0,0
708,748,w4140fe6,Sea,0.0,3274.0,1,1,3,choice,4,-2,-7.0,3,3,2,3
709,749,w4140fe6,Solid,1.0,1408.0,1,2,3,choice,1,1,-1.0,3,3,1,3
710,750,w4140fe6,Small,1.0,3596.0,0,3,3,choice,3,-3,-3.0,3,3,0,1
711,751,w4140fe6,Object,1.0,4686.0,1,4,3,choice,2,2,-3.0,3,3,1,2
712,752,w4140fe6,Small,0.0,2150.0,1,1,4,choice,3,-2,-5.0,5,5,3,3
713,753,w4140fe6,Land,0.0,5734.0,0,2,4,choice,2,2,-2.0,5,5,2,2
714,754,w4140fe6,Pattern,1.0,1444.0,1,3,4,choice,4,2,-2.0,5,5,4,4
715,755,w4140fe6,Object,0.0,1081.0,0,4,4,choice,1,1,-1.0,5,5,1,1
716,756,w4140fe6,Animal,1.0,2020.0,1,1,5,choice,2,3,0.0,2,2,2,4
717,757,w4140fe6,Small,0.0,3757.0,1,2,5,choice,3,-1,-5.0,2,2,1,2
718,758,w4140fe6,Pattern,0.0,914.0,1,3,5,choice,4,-3,-7.0,2,2,1,2
719,759,w4140fe6,Land,0.0,1717.0,1,4,5,choice,1,-2,-2.0,2,2,0,0
720,760,w4140fe6,Sea,0.0,1327.0,0,1,6,choice,1,1,1.0,3,3,1,3
721,761,w4140fe6,Pattern,0.0,3312.0,0,2,6,choice,2,4,4.0,3,3,1,2
722,762,w4140fe6,Small,1.0,2619.0,0,3,6,choice,4,-1,0.0,3,3,2,3
723,763,w4140fe6,Object,1.0,1013.0,1,4,6,choice,3,1,2.0,3,3,2,2
724,764,w4140fe6,Large,1.0,2495.0,1,1,7,choice,3,1,1.0,3,3,1,2
725,765,w4140fe6,Pattern,0.0,4044.0,0,2,7,choice,2,3,-1.0,3,3,1,2
726,766,w4140fe6,Sea,0.0,3175.0,0,3,7,choice,4,1,-3.0,3,3,2,3
727,767,w4140fe6,Animal,1.0,1638.0,0,4,7,choice,1,-1,-1.0,3,3,1,2
728,768,w6079012,Large,1.0,3607.0,1,1,1,choice,2,1,4.0,3,3,1,3
729,769,w6079012,Solid,1.0,3951.0,0,2,1,choice,4,-2,3.0,3,3,2,3
730,770,w6079012,Land,1.0,3873.0,1,3,1,choice,1,2,-1.0,3,3,0,2
731,771,w6079012,Animal,0.0,4202.0,0,4,1,choice,3,3,-1.0,3,3,2,4
732,772,w6079012,Solid,1.0,2905.0,0,1,2,choice,4,-1,1.0,4,4,3,4
733,773,w6079012,Animal,1.0,4796.0,0,2,2,choice,2,-3,3.0,4,4,2,2
734,774,w6079012,Sea,0.0,1219.0,0,3,2,choice,1,1,-1.0,4,4,1,3
735,775,w6079012,Large,1.0,1420.0,0,4,2,choice,3,-1,4.0,4,4,2,4
736,776,w6079012,Small,0.0,1961.0,1,1,3,choice,3,-2,2.0,4,4,2,3
737,777,w6079012,Object,1.0,2176.0,0,2,3,choice,2,-1,2.0,4,4,2,3
738,778,w6079012,Sea,1.0,5027.0,0,3,3,choice,4,-2,2.0,4,4,2,2
739,779,w6079012,Solid,1.0,2482.0,1,4,3,choice,1,1,1.0,4,4,1,1
740,780,w6079012,Object,0.0,5087.0,0,1,4,choice,1,2,2.0,3,3,1,2
741,781,w6079012,Pattern,1.0,3354.0,1,2,4,choice,4,5,4.0,3,3,2,3
742,782,w6079012,Land,1.0,2279.0,1,3,4,choice,2,1,3.0,3,3,2,4
743,783,w6079012,Small,1.0,4855.0,0,4,4,choice,3,-1,2.0,3,3,2,2
744,784,w6079012,Pattern,0.0,1743.0,0,1,5,choice,4,1,3.0,5,5,3,3
745,785,w6079012,Land,0.0,1565.0,0,2,5,choice,1,2,-1.0,5,5,1,1
746,786,w6079012,Animal,1.0,1238.0,0,3,5,choice,2,-3,3.0,5,5,2,2
747,787,w6079012,Small,1.0,2687.0,1,4,5,choice,3,2,1.0,5,5,3,3
748,788,w6079012,Object,0.0,3056.0,1,1,6,choice,3,-2,-2.0,4,4,3,5
749,789,w6079012,Small,0.0,1888.0,1,2,6,choice,4,-1,-1.0,4,4,3,4
750,790,w6079012,Pattern,0.0,1241.0,0,3,6,choice,2,3,1.0,4,4,1,3
751,791,w6079012,Sea,0.0,1109.0,1,4,6,choice,1,-1,-2.0,4,4,1,3
752,792,w6079012,Pattern,0.0,6431.0,0,1,7,choice,2,1,1.0,4,4,2,3
753,793,w6079012,Animal,0.0,2055.0,0,2,7,choice,1,2,1.0,4,4,0,1
754,794,w6079012,Sea,1.0,1105.0,0,3,7,choice,4,-2,-1.0,4,4,3,4
755,795,w6079012,Large,1.0,2425.0,1,4,7,choice,3,2,-1.0,4,4,2,2
756,796,w6c5aa72,Object,1.0,4384.0,0,1,2,choice,4,-1,-2.0,3,3,2,2
757,797,w6c5aa72,Small,1.0,4958.0,1,2,2,choice,3,2,2.0,3,3,1,1
758,798,w6c5aa72,Pattern,0.0,3290.0,1,3,2,choice,1,-2,-1.0,3,3,1,1
759,799,w6c5aa72,Land,0.0,2464.0,1,4,2,choice,2,-1,-2.0,3,3,1,1
760,800,w6c5aa72,Large,1.0,3425.0,0,1,4,choice,2,-2,-2.0,1,1,0,0
761,801,w6c5aa72,Animal,0.0,1838.0,1,2,4,choice,1,-1,-1.0,1,1,0,0
762,802,w6c5aa72,Pattern,0.0,2823.0,1,3,4,choice,4,-1,-2.0,1,1,0,0
763,803,w6c5aa72,Sea,1.0,3877.0,1,4,4,choice,3,2,1.0,1,1,1,1
764,804,wfd759db,Land,,,0,1,1,choice,1,-1,1.0,5,5,0,0
765,805,wfd759db,Animal,1.0,4332.0,1,2,1,choice,3,3,3.0,5,5,2,2
766,806,wfd759db,Solid,1.0,1321.0,1,3,1,choice,4,1,2.0,5,5,3,3
767,807,wfd759db,Large,0.0,1125.0,1,4,1,choice,2,-3,-3.0,5,5,2,2
768,808,wfd759db,Solid,0.0,6885.0,0,1,2,choice,4,1,0.0,5,5,3,3
769,809,wfd759db,Large,0.0,1022.0,1,2,2,choice,3,-2,-3.0,5,5,3,3
770,810,wfd759db,Sea,0.0,4649.0,0,3,2,choice,1,1,1.0,5,5,0,0
771,811,wfd759db,Animal,0.0,3536.0,1,4,2,choice,2,-3,-3.0,5,5,2,2
772,812,wfd759db,Object,0.0,5850.0,0,1,3,choice,2,3,-1.0,4,4,1,2
773,813,wfd759db,Solid,0.0,4054.0,0,2,3,choice,1,2,-2.0,4,4,1,3
774,814,wfd759db,Small,1.0,1271.0,0,3,3,choice,3,-2,5.0,4,4,2,3
775,815,wfd759db,Sea,1.0,1148.0,1,4,3,choice,4,2,0.0,4,4,2,3
776,816,wfd759db,Object,1.0,4264.0,1,1,4,choice,1,1,1.0,1,1,0,1
777,817,wfd759db,Land,0.0,1921.0,0,2,4,choice,2,3,3.0,1,1,1,2
778,818,wfd759db,Small,1.0,3427.0,0,3,4,choice,3,-1,4.0,1,1,1,1
779,819,wfd759db,Pattern,1.0,2461.0,1,4,4,choice,4,3,3.0,1,1,1,1
780,820,wfd759db,Small,1.0,4073.0,1,1,5,choice,3,2,-3.0,2,2,2,5
781,821,wfd759db,Pattern,0.0,1638.0,0,2,5,choice,4,4,-5.0,2,2,2,3
782,822,wfd759db,Land,1.0,5025.0,0,3,5,choice,1,-2,-2.0,2,2,0,1
783,823,wfd759db,Animal,0.0,2515.0,0,4,5,choice,2,1,2.0,2,2,1,3
784,824,wfd759db,Pattern,1.0,3659.0,0,1,6,choice,2,-2,-2.0,4,4,2,3
785,825,wfd759db,Sea,0.0,2965.0,0,2,6,choice,1,2,2.0,4,4,1,2
786,826,wfd759db,Small,1.0,2431.0,1,3,6,choice,4,4,4.0,4,4,3,3
787,827,wfd759db,Object,0.0,4049.0,0,4,6,choice,3,3,3.0,4,4,3,4
788,828,wfd759db,Sea,1.0,2645.0,1,1,7,choice,4,3,5.0,3,3,2,2
789,829,wfd759db,Large,0.0,3484.0,1,2,7,choice,3,-1,-3.0,3,3,2,2
790,830,wfd759db,Pattern,1.0,1824.0,0,3,7,choice,2,-3,1.0,3,3,1,1
791,831,wfd759db,Animal,0.0,2135.0,0,4,7,choice,1,2,2.0,3,3,0,0
792,860,w8146fb9,Land,1.0,6220.0,0,1,1,choice,4,-2,-1.0,4,4,2,2
793,861,w8146fb9,Small,1.0,4769.0,0,2,1,choice,2,-1,0.0,4,4,1,2
794,862,w8146fb9,Pattern,1.0,2904.0,1,3,1,choice,1,1,1.0,4,4,0,2
795,863,w8146fb9,Animal,0.0,2668.0,1,4,1,choice,3,-5,-5.0,4,4,3,3
796,864,w8146fb9,Pattern,0.0,3240.0,1,1,2,choice,1,-2,1.0,6,6,1,1
797,865,w8146fb9,Sea,1.0,3380.0,1,2,2,choice,3,2,-1.0,6,6,3,3
798,866,w8146fb9,Small,1.0,4195.0,0,3,2,choice,4,-2,-3.0,6,6,4,4
799,867,w8146fb9,Animal,1.0,2972.0,1,4,2,choice,2,3,0.0,6,6,2,2
800,868,w8146fb9,Sea,1.0,4438.0,0,1,3,choice,2,-1,0.0,5,5,2,2
801,869,w8146fb9,Large,1.0,4388.0,1,2,3,choice,4,2,3.0,5,5,3,3
802,870,w8146fb9,Solid,1.0,4648.0,1,3,3,choice,1,2,2.0,5,5,1,1
803,871,w8146fb9,Animal,0.0,2538.0,1,4,3,choice,3,-3,-2.0,5,5,2,2
804,872,w8146fb9,Object,1.0,3292.0,1,1,4,choice,2,2,3.0,5,5,1,1
805,873,w8146fb9,Sea,0.0,2333.0,0,2,4,choice,3,1,0.0,5,5,2,2
806,874,w8146fb9,Large,1.0,2610.0,0,3,4,choice,4,-1,1.0,5,5,3,3
807,875,w8146fb9,Solid,0.0,5210.0,1,4,4,choice,1,-2,-2.0,5,5,1,1
808,876,w8146fb9,Pattern,0.0,2515.0,0,1,5,choice,2,1,3.0,4,4,0,1
809,877,w8146fb9,Land,1.0,1366.0,1,2,5,choice,3,2,-1.0,4,4,2,3
810,878,w8146fb9,Object,0.0,1720.0,1,3,5,choice,4,-2,1.0,4,4,2,3
811,879,w8146fb9,Large,1.0,1447.0,0,4,5,choice,1,-1,2.0,4,4,0,1
812,880,w8146fb9,Land,1.0,1734.0,1,1,6,choice,4,2,-1.0,6,6,4,4
813,881,w8146fb9,Small,1.0,2270.0,1,2,6,choice,2,3,0.0,6,6,2,2
814,882,w8146fb9,Solid,1.0,3621.0,0,3,6,choice,3,-3,-5.0,6,6,3,3
815,883,w8146fb9,Object,0.0,1137.0,0,4,6,choice,1,2,1.0,6,6,1,1
816,884,w8146fb9,Land,0.0,2518.0,1,1,7,choice,1,-2,1.0,6,6,1,1
817,885,w8146fb9,Animal,0.0,4269.0,1,2,7,choice,4,-3,0.0,6,6,4,4
818,886,w8146fb9,Solid,1.0,2557.0,1,3,7,choice,2,1,1.0,6,6,2,2
819,887,w8146fb9,Large,0.0,1173.0,1,4,7,choice,3,-1,0.0,6,6,3,3
820,888,w21be7c0,Animal,1.0,1325.0,1,1,2,choice,2,1,0.0,5,5,1,1
821,889,w21be7c0,Pattern,0.0,1748.0,1,2,2,choice,1,-2,2.0,5,5,0,1
822,890,w21be7c0,Small,1.0,522.0,0,3,2,choice,4,-3,4.0,5,5,1,1
823,891,w21be7c0,Sea,1.0,591.0,0,4,2,choice,3,-1,2.0,5,5,1,2
824,892,w21be7c0,Animal,1.0,2338.0,1,1,3,choice,3,4,-2.0,6,6,2,2
825,893,w21be7c0,Large,1.0,2536.0,0,2,3,choice,4,-1,-6.0,6,6,2,2
826,894,w21be7c0,Solid,0.0,1008.0,1,3,3,choice,1,-2,-1.0,6,6,0,0
827,895,w21be7c0,Sea,1.0,867.0,0,4,3,choice,2,-1,-4.0,6,6,2,2
828,896,w21be7c0,Sea,0.0,1960.0,1,1,4,choice,3,-3,-3.0,4,4,3,4
829,897,w21be7c0,Solid,0.0,1922.0,0,2,4,choice,1,1,1.0,4,4,0,0
830,898,w21be7c0,Object,1.0,2354.0,1,3,4,choice,2,1,0.0,4,4,1,2
831,899,w21be7c0,Large,0.0,1683.0,0,4,4,choice,4,1,-1.0,4,4,2,2
832,900,w21be7c0,Land,0.0,3042.0,1,1,5,choice,3,-1,1.0,4,4,1,2
833,901,w21be7c0,Object,1.0,1305.0,1,2,5,choice,4,4,-2.0,4,4,1,1
834,902,w21be7c0,Large,1.0,1251.0,1,3,5,choice,1,2,-2.0,4,4,1,3
835,903,w21be7c0,Pattern,1.0,1615.0,1,4,5,choice,2,4,-1.0,4,4,1,3
836,904,w21be7c0,Small,1.0,1505.0,1,1,6,choice,2,3,1.0,6,6,1,1
837,905,w21be7c0,Solid,0.0,1359.0,1,2,6,choice,3,-2,0.0,6,6,1,1
838,906,w21be7c0,Object,1.0,1181.0,1,3,6,choice,1,2,2.0,6,6,0,0
839,907,w21be7c0,Land,1.0,1973.0,1,4,6,choice,4,4,2.0,6,6,1,1
840,908,w21be7c0,Animal,1.0,1665.0,1,1,7,choice,4,2,-4.0,1,1,0,2
841,909,w21be7c0,Solid,0.0,1966.0,1,2,7,choice,2,-1,-4.0,1,1,0,1
842,910,w21be7c0,Large,1.0,1398.0,0,3,7,choice,3,-3,-6.0,1,1,0,1
843,911,w21be7c0,Land,1.0,677.0,1,4,7,choice,1,1,-1.0,1,1,0,2
844,940,w62f57a5,Small,,,0,1,1,choice,2,-3,-1.0,5,5,1,2
845,941,w62f57a5,Pattern,1.0,2738.0,1,2,1,choice,1,2,2.0,5,5,1,1
846,942,w62f57a5,Land,0.0,2772.0,1,3,1,choice,4,-3,-1.0,5,5,3,3
847,943,w62f57a5,Animal,0.0,3044.0,1,4,1,choice,3,-3,-3.0,5,5,3,4
848,944,w62f57a5,Animal,0.0,2085.0,1,1,2,choice,2,-1,-1.0,4,4,2,3
849,945,w62f57a5,Pattern,0.0,4127.0,1,2,2,choice,1,-1,1.0,4,4,1,1
850,946,w62f57a5,Small,1.0,1567.0,0,3,2,choice,4,-3,2.0,4,4,3,3
851,947,w62f57a5,Sea,0.0,4373.0,0,4,2,choice,3,1,1.0,4,4,2,3
852,948,w62f57a5,Large,1.0,4519.0,1,1,3,choice,4,3,5.0,5,5,4,4
853,949,w62f57a5,Animal,1.0,5250.0,1,2,3,choice,3,2,1.0,5,5,3,4
854,950,w62f57a5,Sea,0.0,1555.0,1,3,3,choice,2,-1,-1.0,5,5,1,2
855,951,w62f57a5,Solid,1.0,1879.0,1,4,3,choice,1,1,2.0,5,5,1,2
856,952,w62f57a5,Large,0.0,3543.0,1,1,4,choice,4,-3,-3.0,3,3,2,3
857,953,w62f57a5,Object,0.0,5026.0,1,2,4,choice,2,-4,-3.0,3,3,1,3
858,954,w62f57a5,Solid,1.0,2147.0,1,3,4,choice,1,2,2.0,3,3,0,3
859,955,w62f57a5,Sea,0.0,1578.0,1,4,4,choice,3,-2,-1.0,3,3,2,4
860,956,w62f57a5,Land,1.0,3274.0,0,1,5,choice,3,-2,3.0,4,4,2,3
861,957,w62f57a5,Object,1.0,2370.0,1,2,5,choice,4,2,-2.0,4,4,3,4
862,958,w62f57a5,Large,0.0,1543.0,0,3,5,choice,1,2,-2.0,4,4,1,3
863,959,w62f57a5,Pattern,0.0,1274.0,0,4,5,choice,2,3,-1.0,4,4,2,3
864,960,w62f57a5,Small,1.0,2522.0,1,1,6,choice,2,3,-1.0,5,5,2,3
865,961,w62f57a5,Solid,0.0,2644.0,1,2,6,choice,3,-2,-3.0,5,5,2,3
866,962,w62f57a5,Land,0.0,2876.0,0,3,6,choice,4,2,-4.0,5,5,4,4
867,963,w62f57a5,Object,1.0,2668.0,1,4,6,choice,1,1,1.0,5,5,1,1
868,964,w62f57a5,Land,1.0,3728.0,0,1,7,choice,1,-2,-2.0,5,5,1,2
869,965,w62f57a5,Animal,0.0,2896.0,1,2,7,choice,4,-4,-4.0,5,5,4,4
870,966,w62f57a5,Large,0.0,1300.0,0,3,7,choice,3,1,-2.0,5,5,2,2
871,967,w62f57a5,Solid,1.0,1026.0,1,4,7,choice,2,3,-1.0,5,5,1,1
872,968,w063688a,Solid,1.0,4096.0,1,1,1,choice,4,2,5.0,6,6,4,4
873,969,w063688a,Animal,1.0,4564.0,1,2,1,choice,3,3,3.0,6,6,3,3
874,970,w063688a,Land,0.0,6736.0,0,3,1,choice,2,1,4.0,6,6,2,2
875,971,w063688a,Small,0.0,5430.0,1,4,1,choice,1,-1,-1.0,6,6,1,1
876,972,w063688a,Small,0.0,6326.0,1,1,2,choice,3,-2,-2.0,6,6,3,3
877,973,w063688a,Object,1.0,4226.0,1,2,2,choice,4,3,3.0,6,6,4,4
878,974,w063688a,Pattern,0.0,3634.0,1,3,2,choice,1,-2,2.0,6,6,1,1
879,975,w063688a,Land,0.0,4218.0,1,4,2,choice,2,-1,3.0,6,6,2,2
880,976,w063688a,Solid,0.0,4854.0,1,1,3,choice,3,-2,-2.0,5,5,3,4
881,977,w063688a,Land,1.0,2775.0,1,2,3,choice,1,2,2.0,5,5,1,1
882,978,w063688a,Large,0.0,4861.0,1,3,3,choice,2,-3,-4.0,5,5,1,1
883,979,w063688a,Object,0.0,2875.0,1,4,3,choice,4,-3,-8.0,5,5,3,3
884,980,w063688a,Sea,0.0,4245.0,1,1,4,choice,3,-4,-4.0,6,6,3,3
885,981,w063688a,Animal,0.0,3670.0,1,2,4,choice,1,-1,-1.0,6,6,1,1
886,982,w063688a,Pattern,0.0,1634.0,0,3,4,choice,4,1,1.0,6,6,4,4
887,983,w063688a,Large,1.0,2900.0,1,4,4,choice,2,1,1.0,6,6,2,2
888,984,w063688a,Object,1.0,4081.0,1,1,5,choice,3,5,2.0,5,5,3,4
889,985,w063688a,Sea,0.0,3960.0,1,2,5,choice,2,-3,-4.0,5,5,2,3
890,986,w063688a,Large,0.0,3693.0,0,3,5,choice,1,1,1.0,5,5,1,1
891,987,w063688a,Pattern,1.0,2031.0,0,4,5,choice,4,-1,0.0,5,5,3,3
892,988,w063688a,Land,1.0,3153.0,1,1,6,choice,3,2,2.0,6,6,3,3
893,989,w063688a,Object,0.0,4864.0,1,2,6,choice,1,-1,-1.0,6,6,1,1
894,990,w063688a,Small,1.0,4155.0,1,3,6,choice,2,3,3.0,6,6,2,2
895,991,w063688a,Pattern,1.0,3493.0,1,4,6,choice,4,3,3.0,6,6,4,4
896,992,w063688a,Small,0.0,2627.0,1,1,7,choice,4,-1,0.0,5,5,3,4
897,993,w063688a,Sea,0.0,4172.0,1,2,7,choice,1,-1,-1.0,5,5,1,2
898,994,w063688a,Animal,1.0,2384.0,1,3,7,choice,3,4,5.0,5,5,2,3
899,995,w063688a,Solid,1.0,3514.0,0,4,7,choice,2,-1,0.0,5,5,1,1
900,1024,w31415e8,Large,,,0,1,1,choice,1,2,2.0,4,4,1,2
901,1025,w31415e8,Sea,0.0,3485.0,0,2,1,choice,3,1,3.0,4,4,2,2
902,1026,w31415e8,Object,0.0,3969.0,0,3,1,choice,4,3,5.0,4,4,3,5
903,1027,w31415e8,Solid,1.0,3149.0,0,4,1,choice,2,-3,1.0,4,4,0,1
904,1028,w31415e8,Solid,1.0,5521.0,0,1,2,choice,4,-3,1.0,5,5,3,3
905,1029,w31415e8,Sea,0.0,4941.0,0,2,2,choice,2,1,1.0,5,5,1,2
906,1030,w31415e8,Animal,0.0,4575.0,1,3,2,choice,3,-2,1.0,5,5,3,3
907,1031,w31415e8,Large,0.0,3812.0,1,4,2,choice,1,-1,-1.0,5,5,1,2
908,1032,w31415e8,Animal,1.0,5541.0,1,1,3,choice,2,2,-1.0,5,5,1,1
909,1033,w31415e8,Large,1.0,1570.0,1,2,3,choice,4,2,2.0,5,5,3,3
910,1034,w31415e8,Land,0.0,3788.0,1,3,3,choice,1,-2,1.0,5,5,1,2
911,1035,w31415e8,Pattern,0.0,1703.0,0,4,3,choice,3,1,1.0,5,5,2,3
912,1036,w31415e8,Sea,0.0,4410.0,1,1,4,choice,2,-1,-1.0,5,5,2,3
913,1037,w31415e8,Small,1.0,3709.0,1,2,4,choice,1,1,-1.0,5,5,1,2
914,1038,w31415e8,Pattern,0.0,2799.0,1,3,4,choice,3,-4,-4.0,5,5,3,3
915,1039,w31415e8,Animal,1.0,3871.0,0,4,4,choice,4,-1,-3.0,5,5,3,3
916,1040,w31415e8,Object,0.0,5951.0,0,1,5,choice,3,3,3.0,5,5,3,3
917,1041,w31415e8,Large,1.0,3205.0,1,2,5,choice,4,4,2.0,5,5,4,5
918,1042,w31415e8,Land,0.0,3140.0,1,3,5,choice,2,-2,-2.0,5,5,1,2
919,1043,w31415e8,Solid,1.0,2160.0,1,4,5,choice,1,2,2.0,5,5,1,2
920,1044,w31415e8,Small,0.0,2854.0,0,1,6,choice,1,2,-1.0,5,5,1,2
921,1045,w31415e8,Land,1.0,4996.0,0,2,6,choice,4,-2,-2.0,5,5,3,4
922,1046,w31415e8,Pattern,0.0,3047.0,1,3,6,choice,2,-2,-2.0,5,5,2,3
923,1047,w31415e8,Object,1.0,2581.0,1,4,6,choice,3,2,3.0,5,5,2,2
924,1048,w31415e8,Solid,0.0,3273.0,0,1,7,choice,2,3,1.0,5,5,2,2
925,1049,w31415e8,Land,1.0,3563.0,1,2,7,choice,1,2,2.0,5,5,1,2
926,1050,w31415e8,Object,1.0,2787.0,0,3,7,choice,3,-1,0.0,5,5,3,4
927,1051,w31415e8,Small,1.0,3472.0,1,4,7,choice,4,2,-1.0,5,5,4,4
928,1052,w9d4c48d,Land,1.0,3259.0,1,1,1,choice,3,5,5.0,5,5,3,3
929,1053,w9d4c48d,Large,1.0,2785.0,1,2,1,choice,2,3,3.0,5,5,2,2
930,1054,w9d4c48d,Animal,0.0,2581.0,1,3,1,choice,4,-1,0.0,5,5,3,3
931,1055,w9d4c48d,Solid,1.0,1482.0,0,4,1,choice,1,-2,-1.0,5,5,0,0
932,1056,w9d4c48d,Small,1.0,3240.0,1,1,2,choice,3,1,-3.0,4,4,2,2
933,1057,w9d4c48d,Sea,1.0,3028.0,1,2,2,choice,2,2,-1.0,4,4,2,3
934,1058,w9d4c48d,Animal,1.0,2687.0,0,3,2,choice,4,-1,-2.0,4,4,3,3
935,1059,w9d4c48d,Pattern,0.0,3030.0,0,4,2,choice,1,1,1.0,4,4,1,2
936,1060,w9d4c48d,Pattern,1.0,2287.0,1,1,3,choice,3,2,2.0,4,4,3,3
937,1061,w9d4c48d,Land,1.0,2375.0,1,2,3,choice,2,1,3.0,4,4,2,3
938,1062,w9d4c48d,Object,1.0,2114.0,0,3,3,choice,4,-2,0.0,4,4,3,3
939,1063,w9d4c48d,Large,0.0,2968.0,1,4,3,choice,1,-1,-1.0,4,4,1,1
940,1064,w9d4c48d,Animal,1.0,2992.0,0,1,4,choice,4,-3,-3.0,6,6,4,4
941,1065,w9d4c48d,Small,0.0,5593.0,1,2,4,choice,2,-3,-3.0,6,6,2,2
942,1066,w9d4c48d,Land,1.0,4172.0,1,3,4,choice,1,1,2.0,6,6,1,1
943,1067,w9d4c48d,Solid,0.0,4670.0,0,4,4,choice,3,3,3.0,6,6,3,3
944,1068,w9d4c48d,Large,0.0,3193.0,1,1,5,choice,2,-3,-4.0,6,6,2,2
945,1069,w9d4c48d,Object,1.0,2871.0,1,2,5,choice,4,2,1.0,6,6,4,4
946,1070,w9d4c48d,Sea,1.0,1778.0,1,3,5,choice,1,1,1.0,6,6,1,1
947,1071,w9d4c48d,Solid,0.0,2705.0,1,4,5,choice,3,-3,-3.0,6,6,3,3
948,1072,w9d4c48d,Pattern,0.0,1265.0,1,1,6,choice,4,-1,-3.0,6,6,4,4
949,1073,w9d4c48d,Land,0.0,2032.0,1,2,6,choice,3,-6,-6.0,6,6,3,3
950,1074,w9d4c48d,Object,1.0,996.0,1,3,6,choice,1,1,1.0,6,6,1,1
951,1075,w9d4c48d,Large,0.0,1524.0,1,4,6,choice,2,-4,-4.0,6,6,2,2
952,1076,w9d4c48d,Small,0.0,3639.0,0,1,7,choice,1,2,2.0,5,5,0,0
953,1077,w9d4c48d,Sea,1.0,3487.0,0,2,7,choice,3,-1,-1.0,5,5,3,3
954,1078,w9d4c48d,Pattern,0.0,3309.0,0,3,7,choice,4,3,3.0,5,5,3,3
955,1079,w9d4c48d,Animal,1.0,3308.0,1,4,7,choice,2,4,4.0,5,5,1,1
956,1080,we35ea87,Large,0.0,2735.0,1,1,1,choice,2,-1,-3.0,4,4,1,3
957,1081,we35ea87,Solid,0.0,2563.0,1,2,1,choice,1,-1,1.0,4,4,1,2
958,1082,we35ea87,Land,0.0,1503.0,1,3,1,choice,3,-2,-2.0,4,4,2,2
959,1083,we35ea87,Animal,0.0,1980.0,0,4,1,choice,4,1,3.0,4,4,2,2
960,1084,we35ea87,Pattern,0.0,1685.0,1,1,2,choice,1,-2,-2.0,5,5,1,2
961,1085,we35ea87,Animal,0.0,3702.0,1,2,2,choice,4,-2,-4.0,5,5,3,4
962,1086,we35ea87,Small,1.0,5048.0,1,3,2,choice,3,1,-2.0,5,5,3,3
963,1087,we35ea87,Sea,0.0,2504.0,0,4,2,choice,2,3,-2.0,5,5,2,2
964,1088,we35ea87,Large,0.0,2113.0,0,1,3,choice,1,1,1.0,5,5,1,2
965,1089,we35ea87,Land,0.0,1181.0,1,2,3,choice,2,-2,0.0,5,5,2,3
966,1090,we35ea87,Pattern,0.0,5250.0,1,3,3,choice,3,-2,-2.0,5,5,3,3
967,1091,we35ea87,Object,1.0,4426.0,1,4,3,choice,4,1,2.0,5,5,4,5
968,1092,we35ea87,Animal,1.0,1694.0,1,1,4,choice,4,4,0.0,5,5,3,3
969,1093,we35ea87,Solid,0.0,2812.0,1,2,4,choice,3,-1,-1.0,5,5,2,2
970,1094,we35ea87,Land,0.0,1083.0,1,3,4,choice,1,-2,-2.0,5,5,1,1
971,1095,we35ea87,Small,1.0,4010.0,1,4,4,choice,2,1,-3.0,5,5,2,2
972,1096,we35ea87,Solid,1.0,1137.0,1,1,5,choice,3,4,4.0,6,6,3,3
973,1097,we35ea87,Sea,0.0,1935.0,1,2,5,choice,1,-2,-1.0,6,6,1,1
974,1098,we35ea87,Object,0.0,2203.0,1,3,5,choice,4,-4,-4.0,6,6,4,4
975,1099,we35ea87,Large,0.0,1318.0,0,4,5,choice,2,1,0.0,6,6,2,2
976,1100,we35ea87,Object,1.0,1516.0,1,1,6,choice,1,2,2.0,4,4,1,1
977,1101,we35ea87,Land,1.0,1396.0,0,2,6,choice,3,-2,2.0,4,4,2,2
978,1102,we35ea87,Pattern,1.0,1728.0,1,3,6,choice,4,4,0.0,4,4,4,4
979,1103,we35ea87,Large,0.0,1184.0,1,4,6,choice,2,-1,3.0,4,4,1,1
980,1104,we35ea87,Pattern,1.0,1190.0,0,1,7,choice,4,-1,0.0,5,5,3,3
981,1105,we35ea87,Sea,0.0,2070.0,1,2,7,choice,3,-1,0.0,5,5,2,2
982,1106,we35ea87,Animal,1.0,1458.0,1,3,7,choice,2,3,3.0,5,5,2,3
983,1107,we35ea87,Small,0.0,1578.0,0,4,7,choice,1,1,1.0,5,5,1,1
984,1108,wbe3571b,Land,1.0,5937.0,1,1,1,choice,1,2,1.0,3,3,1,2
985,1109,wbe3571b,Animal,1.0,4363.0,1,2,1,choice,3,2,1.0,3,3,2,3
986,1110,wbe3571b,Large,0.0,4508.0,1,3,1,choice,2,-3,-4.0,3,3,1,2
987,1111,wbe3571b,Solid,0.0,961.0,0,4,1,choice,4,4,2.0,3,3,2,3
988,1112,wbe3571b,Sea,1.0,1867.0,1,1,2,choice,1,2,2.0,3,3,1,2
989,1113,wbe3571b,Animal,0.0,1566.0,1,2,2,choice,2,-3,-3.0,3,3,0,0
990,1114,wbe3571b,Solid,1.0,880.0,1,3,2,choice,4,2,-1.0,3,3,3,4
991,1115,wbe3571b,Large,1.0,669.0,0,4,2,choice,3,-1,-5.0,3,3,1,3
992,1116,wbe3571b,Solid,1.0,2112.0,0,1,3,choice,1,-1,-1.0,3,3,0,0
993,1117,wbe3571b,Small,1.0,3546.0,0,2,3,choice,3,-1,5.0,3,3,3,3
994,1118,wbe3571b,Object,1.0,2936.0,1,3,3,choice,2,1,1.0,3,3,1,1
995,1119,wbe3571b,Sea,1.0,1312.0,1,4,3,choice,4,1,2.0,3,3,2,2
996,1120,wbe3571b,Pattern,1.0,3889.0,1,1,4,choice,4,1,-4.0,5,5,4,4
997,1121,wbe3571b,Small,0.0,4677.0,1,2,4,choice,3,-4,-4.0,5,5,2,2
998,1122,wbe3571b,Object,1.0,1817.0,1,3,4,choice,1,2,-2.0,5,5,1,1
999,1123,wbe3571b,Land,0.0,4216.0,0,4,4,choice,2,1,-3.0,5,5,2,2
1000,1124,wbe3571b,Land,0.0,2921.0,1,1,5,choice,1,-2,-1.0,5,5,1,1
1001,1125,wbe3571b,Pattern,0.0,3610.0,1,2,5,choice,4,-3,-2.0,5,5,3,3
1002,1126,wbe3571b,Small,0.0,1325.0,1,3,5,choice,3,-1,0.0,5,5,2,2
1003,1127,wbe3571b,Animal,1.0,3891.0,1,4,5,choice,2,4,4.0,5,5,2,2
1004,1128,wbe3571b,Small,0.0,2284.0,1,1,6,choice,4,-1,-1.0,5,5,3,3
1005,1129,wbe3571b,Pattern,0.0,2160.0,1,2,6,choice,2,-3,-3.0,5,5,2,2
1006,1130,wbe3571b,Object,0.0,1636.0,1,3,6,choice,3,-2,-2.0,5,5,2,2
1007,1131,wbe3571b,Sea,1.0,1348.0,1,4,6,choice,1,2,2.0,5,5,0,0
1008,1132,wbe3571b,Large,1.0,2051.0,1,1,7,choice,3,1,5.0,2,2,2,2
1009,1133,wbe3571b,Animal,1.0,6086.0,0,2,7,choice,1,-2,2.0,2,2,0,0
1010,1134,wbe3571b,Pattern,0.0,1870.0,0,3,7,choice,2,3,4.0,2,2,1,1
1011,1135,wbe3571b,Sea,0.0,1868.0,1,4,7,choice,4,-4,3.0,2,2,0,0
1012,1136,w7e41e95,Object,0.0,3261.0,1,1,1,choice,2,-3,-1.0,2,2,1,3
1013,1137,w7e41e95,Small,1.0,2352.0,0,2,1,choice,1,-2,-1.0,2,2,1,2
1014,1138,w7e41e95,Land,0.0,3958.0,1,3,1,choice,4,-1,2.0,2,2,1,2
1015,1139,w7e41e95,Pattern,0.0,1798.0,0,4,1,choice,3,2,5.0,2,2,1,3
1016,1140,w7e41e95,Solid,,,0,1,2,choice,4,1,0.0,5,5,4,4
1017,1141,w7e41e95,Object,1.0,106.0,0,2,2,choice,1,-2,2.0,5,5,1,1
1018,1142,w7e41e95,Sea,0.0,7150.0,0,3,2,choice,2,1,0.0,5,5,1,1
1019,1143,w7e41e95,Large,1.0,4696.0,0,4,2,choice,3,-1,2.0,5,5,3,3
1020,1144,w7e41e95,Land,1.0,3063.0,0,1,3,choice,3,-2,-2.0,5,5,3,3
1021,1145,w7e41e95,Small,1.0,3905.0,1,2,3,choice,1,1,1.0,5,5,1,1
1022,1146,w7e41e95,Animal,1.0,964.0,1,3,3,choice,4,3,3.0,5,5,3,3
1023,1147,w7e41e95,Pattern,0.0,5642.0,0,4,3,choice,2,1,1.0,5,5,1,1
1024,1148,w7e41e95,Pattern,1.0,3900.0,0,1,4,choice,2,-3,0.0,3,3,2,2
1025,1149,w7e41e95,Object,0.0,3313.0,1,2,4,choice,4,-4,3.0,3,3,3,3
1026,1150,w7e41e95,Land,1.0,2844.0,0,3,4,choice,1,-2,-1.0,3,3,1,1
1027,1151,w7e41e95,Large,1.0,816.0,1,4,4,choice,3,1,4.0,3,3,2,2
1028,1152,w7e41e95,Small,0.0,2588.0,1,1,5,choice,4,-4,-1.0,3,3,2,3
1029,1153,w7e41e95,Pattern,1.0,2951.0,0,2,5,choice,1,-1,-1.0,3,3,1,1
1030,1154,w7e41e95,Sea,0.0,1773.0,1,3,5,choice,2,-3,-2.0,3,3,2,3
1031,1155,w7e41e95,Animal,1.0,2004.0,1,4,5,choice,3,1,3.0,3,3,2,2
1032,1156,w7e41e95,Sea,0.0,4291.0,1,1,6,choice,3,-2,4.0,2,2,1,1
1033,1157,w7e41e95,Large,1.0,1292.0,0,2,6,choice,2,-1,3.0,2,2,1,2
1034,1158,w7e41e95,Animal,1.0,3199.0,1,3,6,choice,4,3,7.0,2,2,0,1
1035,1159,w7e41e95,Solid,1.0,2703.0,1,4,6,choice,1,2,1.0,2,2,0,1
1036,1160,w7e41e95,Land,0.0,331.0,1,1,7,choice,3,-1,2.0,3,3,1,1
1037,1161,w7e41e95,Animal,0.0,3523.0,1,2,7,choice,1,-1,2.0,3,3,1,1
1038,1162,w7e41e95,Solid,1.0,848.0,1,3,7,choice,2,1,0.0,3,3,1,1
1039,1163,w7e41e95,Small,1.0,1966.0,1,4,7,choice,4,1,3.0,3,3,3,3
1040,1164,wca9e1aa,Animal,1.0,2590.0,1,1,1,choice,3,2,0.0,3,3,1,2
1041,1165,wca9e1aa,Land,1.0,4301.0,1,2,1,choice,2,4,2.0,3,3,1,2
1042,1166,wca9e1aa,Small,0.0,2110.0,1,3,1,choice,1,-2,-2.0,3,3,1,4
1043,1167,wca9e1aa,Solid,1.0,2907.0,1,4,1,choice,4,1,1.0,3,3,2,3
1044,1168,wca9e1aa,Land,1.0,4034.0,1,1,2,choice,2,4,4.0,6,6,2,2
1045,1169,wca9e1aa,Pattern,,,0,2,2,choice,1,2,2.0,6,6,1,1
1046,1170,wca9e1aa,Small,0.0,3357.0,1,3,2,choice,3,-1,-1.0,6,6,3,3
1047,1171,wca9e1aa,Object,1.0,3794.0,1,4,2,choice,4,2,2.0,6,6,4,4
1048,1172,wca9e1aa,Object,1.0,5163.0,0,1,3,choice,4,-1,-1.0,5,5,4,4
1049,1173,wca9e1aa,Solid,1.0,3978.0,1,2,3,choice,3,2,2.0,5,5,3,3
1050,1174,wca9e1aa,Large,1.0,4731.0,1,3,3,choice,2,2,2.0,5,5,2,2
1051,1175,wca9e1aa,Land,1.0,5067.0,1,4,3,choice,1,2,2.0,5,5,1,1
1052,1176,wca9e1aa,Sea,0.0,4650.0,0,1,4,choice,3,1,-1.0,3,3,1,1
1053,1177,wca9e1aa,Pattern,1.0,4007.0,0,2,4,choice,4,-3,-5.0,3,3,2,2
1054,1178,wca9e1aa,Animal,1.0,3458.0,0,3,4,choice,1,-1,-1.0,3,3,1,1
1055,1179,wca9e1aa,Large,0.0,2616.0,1,4,4,choice,2,-2,-2.0,3,3,1,1
1056,1180,wca9e1aa,Object,1.0,1400.0,1,1,6,choice,1,1,-2.0,1,1,0,2
1057,1181,wca9e1aa,Land,0.0,423.0,0,2,6,choice,3,1,2.0,1,1,0,2
1058,1182,wca9e1aa,Pattern,1.0,2233.0,0,3,6,choice,4,-2,0.0,1,1,1,2
1059,1183,wca9e1aa,Small,1.0,374.0,0,4,6,choice,2,-3,-3.0,1,1,1,3
1060,1184,wca9e1aa,Sea,0.0,7026.0,0,1,7,choice,1,1,1.0,6,6,1,1
1061,1185,wca9e1aa,Animal,0.0,3097.0,1,2,7,choice,3,-1,-1.0,6,6,3,3
1062,1186,wca9e1aa,Solid,1.0,2666.0,1,3,7,choice,2,3,3.0,6,6,2,2
1063,1187,wca9e1aa,Small,1.0,1829.0,1,4,7,choice,4,3,3.0,6,6,4,4
1064,1188,wf6aed15,Object,0.0,5583.0,1,1,1,choice,2,-1,-1.0,5,5,1,1
1065,1189,wf6aed15,Pattern,1.0,3951.0,1,2,1,choice,3,3,3.0,5,5,2,2
1066,1190,wf6aed15,Land,0.0,4558.0,1,3,1,choice,4,-1,-2.0,5,5,3,3
1067,1191,wf6aed15,Small,1.0,3793.0,0,4,1,choice,1,-1,-2.0,5,5,1,1
1068,1192,wf6aed15,Large,1.0,5048.0,1,1,2,choice,3,1,1.0,4,4,3,4
1069,1193,wf6aed15,Object,0.0,5881.0,0,2,2,choice,1,2,2.0,4,4,1,2
1070,1194,wf6aed15,Sea,0.0,3778.0,1,3,2,choice,2,-1,-1.0,4,4,2,2
1071,1195,wf6aed15,Solid,1.0,5449.0,1,4,2,choice,4,3,3.0,4,4,3,3
1072,1196,wf6aed15,Pattern,0.0,5872.0,1,1,3,choice,2,-2,-3.0,5,5,2,3
1073,1197,wf6aed15,Small,0.0,5950.0,0,2,3,choice,1,1,1.0,5,5,0,0
1074,1198,wf6aed15,Animal,1.0,4128.0,1,3,3,choice,4,3,2.0,5,5,3,3
1075,1199,wf6aed15,Land,1.0,4176.0,1,4,3,choice,3,1,1.0,5,5,2,2
1076,1200,wf6aed15,Large,1.0,2704.0,0,1,4,choice,3,-1,1.0,3,3,2,2
1077,1201,wf6aed15,Land,0.0,5300.0,0,2,4,choice,1,2,-2.0,3,3,0,0
1078,1202,wf6aed15,Object,1.0,1835.0,1,3,4,choice,4,5,0.0,3,3,2,2
1079,1203,wf6aed15,Pattern,1.0,3892.0,1,4,4,choice,2,1,-3.0,3,3,1,1
1080,1204,wf6aed15,Sea,1.0,2893.0,1,1,5,choice,2,1,-1.0,3,3,1,3
1081,1205,wf6aed15,Pattern,1.0,5386.0,0,2,5,choice,1,-1,1.0,3,3,1,3
1082,1206,wf6aed15,Animal,0.0,3306.0,0,3,5,choice,3,2,-2.0,3,3,0,1
1083,1207,wf6aed15,Small,1.0,2775.0,1,4,5,choice,4,1,0.0,3,3,2,2
1084,1208,wf6aed15,Solid,1.0,3229.0,0,1,6,choice,1,-1,-1.0,1,1,0,0
1085,1209,wf6aed15,Sea,0.0,3608.0,0,2,6,choice,3,2,-2.0,1,1,1,1
1086,1210,wf6aed15,Animal,1.0,2662.0,0,3,6,choice,4,-1,-3.0,1,1,1,1
1087,1211,wf6aed15,Large,0.0,3809.0,0,4,6,choice,2,3,0.0,1,1,0,0
1088,1212,wf6aed15,Land,1.0,3154.0,1,1,7,choice,3,3,2.0,2,2,2,2
1089,1213,wf6aed15,Small,1.0,3394.0,0,2,7,choice,4,-2,1.0,2,2,1,1
1090,1214,wf6aed15,Solid,0.0,2790.0,1,3,7,choice,2,-2,1.0,2,2,1,1
1091,1215,wf6aed15,Animal,1.0,1787.0,1,4,7,choice,1,2,-1.0,2,2,0,0
1092,1216,wc471696,Large,,,0,1,1,choice,2,1,1.0,3,3,2,2
1093,1217,wc471696,Land,,,0,2,1,choice,3,2,3.0,3,3,2,2
1094,1218,wc471696,Animal,0.0,4024.0,1,3,1,choice,4,-1,3.0,3,3,2,2
1095,1219,wc471696,Solid,1.0,7479.0,0,4,1,choice,1,-2,1.0,3,3,0,0
1096,1220,wc471696,Small,0.0,7329.0,1,1,2,choice,3,-2,-5.0,5,5,2,2
1097,1221,wc471696,Animal,0.0,6224.0,1,2,2,choice,4,-2,-3.0,5,5,4,4
1098,1222,wc471696,Sea,1.0,6079.0,1,3,2,choice,2,3,1.0,5,5,1,1
1099,1223,wc471696,Pattern,0.0,6735.0,1,4,2,choice,1,-2,-2.0,5,5,1,1
1100,1224,wc471696,Pattern,0.0,6811.0,1,1,3,choice,3,-1,1.0,6,6,3,3
1101,1225,wc471696,Object,0.0,5818.0,1,2,3,choice,4,-1,1.0,6,6,4,4
1102,1226,wc471696,Land,1.0,5649.0,1,3,3,choice,2,1,1.0,6,6,2,2
1103,1227,wc471696,Large,0.0,5661.0,1,4,3,choice,1,-1,1.0,6,6,1,1
1104,1228,wc471696,Land,0.0,6623.0,0,1,4,choice,1,1,1.0,5,5,1,1
1105,1229,wc471696,Small,,,0,2,4,choice,2,-1,-1.0,5,5,2,2
1106,1230,wc471696,Animal,0.0,4087.0,1,3,4,choice,4,-5,-2.0,5,5,4,4
1107,1231,wc471696,Solid,0.0,4744.0,1,4,4,choice,3,-3,-3.0,5,5,2,2
1108,1232,wc471696,Object,,,0,1,5,choice,4,2,3.0,6,6,4,4
1109,1233,wc471696,Solid,1.0,4558.0,0,2,5,choice,3,-2,-2.0,6,6,3,3
1110,1234,wc471696,Large,0.0,5362.0,1,3,5,choice,2,-1,0.0,6,6,2,2
1111,1235,wc471696,Sea,0.0,5664.0,1,4,5,choice,1,-1,-1.0,6,6,1,1
1112,1236,wc471696,Large,1.0,4929.0,1,1,6,choice,2,2,3.0,6,6,2,2
1113,1237,wc471696,Object,0.0,2769.0,1,2,6,choice,1,-1,-1.0,6,6,1,1
1114,1238,wc471696,Pattern,1.0,3215.0,1,3,6,choice,4,1,1.0,6,6,4,4
1115,1239,wc471696,Land,1.0,4422.0,1,4,6,choice,3,4,4.0,6,6,3,3
1116,1240,wc471696,Animal,1.0,4852.0,1,1,7,choice,2,2,0.0,6,6,2,2
1117,1241,wc471696,Pattern,0.0,3811.0,1,2,7,choice,4,-1,-2.0,6,6,4,4
1118,1242,wc471696,Small,1.0,4853.0,1,3,7,choice,1,1,-1.0,6,6,1,1
1119,1243,wc471696,Sea,0.0,5516.0,1,4,7,choice,3,-1,-1.0,6,6,3,3
1120,1244,wc5adc9d,Object,1.0,7307.0,1,1,1,choice,2,3,4.0,3,3,1,2
1121,1245,wc5adc9d,Pattern,1.0,6922.0,1,2,1,choice,3,1,2.0,3,3,1,1
1122,1246,wc5adc9d,Small,1.0,1926.0,0,3,1,choice,1,-2,2.0,3,3,0,0
1123,1247,wc5adc9d,Land,0.0,3911.0,1,4,1,choice,4,-1,4.0,3,3,3,3
1124,1248,wc5adc9d,Object,1.0,5498.0,0,1,2,choice,1,-1,-1.0,3,3,1,1
1125,1249,wc5adc9d,Sea,0.0,2450.0,0,2,2,choice,2,1,0.0,3,3,1,1
1126,1250,wc5adc9d,Large,1.0,2826.0,0,3,2,choice,3,-1,3.0,3,3,3,3
1127,1251,wc5adc9d,Solid,1.0,3129.0,1,4,2,choice,4,1,2.0,3,3,3,3
1128,1252,wc5adc9d,Land,1.0,1280.0,1,1,3,choice,3,3,1.0,2,2,1,2
1129,1253,wc5adc9d,Pattern,,,0,2,3,choice,2,-1,-2.0,2,2,0,0
1130,1254,wc5adc9d,Small,1.0,4941.0,1,3,3,choice,1,1,1.0,2,2,0,0
1131,1255,wc5adc9d,Animal,1.0,1852.0,0,4,3,choice,4,-1,2.0,2,2,2,2
1132,1256,wc5adc9d,Object,1.0,2185.0,0,1,4,choice,4,-1,1.0,3,3,1,2
1133,1257,wc5adc9d,Large,1.0,3632.0,1,2,4,choice,3,1,-1.0,3,3,1,2
1134,1258,wc5adc9d,Land,1.0,2022.0,0,3,4,choice,1,-2,1.0,3,3,1,2
1135,1259,wc5adc9d,Pattern,0.0,2227.0,1,4,4,choice,2,-3,2.0,3,3,1,2
1136,1260,wc5adc9d,Small,1.0,6126.0,0,1,5,choice,4,-3,2.0,3,3,2,3
1137,1261,wc5adc9d,Pattern,1.0,4919.0,0,2,5,choice,1,-1,-2.0,3,3,1,3
1138,1262,wc5adc9d,Sea,0.0,2067.0,1,3,5,choice,2,-2,-1.0,3,3,2,4
1139,1263,wc5adc9d,Animal,0.0,3520.0,0,4,5,choice,3,1,3.0,3,3,2,3
1140,1264,wc5adc9d,Animal,1.0,1859.0,1,1,6,choice,4,1,1.0,1,1,1,2
1141,1265,wc5adc9d,Sea,0.0,3489.0,1,2,6,choice,3,-3,3.0,1,1,1,1
1142,1266,wc5adc9d,Solid,0.0,1858.0,1,3,6,choice,1,-1,1.0,1,1,1,2
1143,1267,wc5adc9d,Large,1.0,2013.0,1,4,6,choice,2,1,1.0,1,1,0,1
1144,1268,wc5adc9d,Solid,1.0,2256.0,0,1,7,choice,2,-3,-1.0,2,2,1,1
1145,1269,wc5adc9d,Small,0.0,1988.0,1,2,7,choice,4,-1,-3.0,2,2,2,2
1146,1270,wc5adc9d,Land,0.0,1907.0,1,3,7,choice,3,-1,-1.0,2,2,1,1
1147,1271,wc5adc9d,Animal,1.0,1282.0,1,4,7,choice,1,1,0.0,2,2,0,0
1148,1272,w6ebaea9,Sea,0.0,3800.0,0,1,1,choice,3,1,1.0,3,3,1,1
1149,1273,w6ebaea9,Large,1.0,7371.0,1,2,1,choice,1,1,1.0,3,3,0,3
1150,1274,w6ebaea9,Solid,0.0,4584.0,0,3,1,choice,2,1,1.0,3,3,1,2
1151,1275,w6ebaea9,Object,1.0,2508.0,0,4,1,choice,4,-1,0.0,3,3,2,4
1152,1276,w6ebaea9,Sea,1.0,4298.0,1,1,2,choice,2,1,1.0,3,3,1,1
1153,1277,w6ebaea9,Solid,0.0,5469.0,1,2,2,choice,4,-2,-2.0,3,3,1,2
1154,1278,w6ebaea9,Large,1.0,1627.0,1,3,2,choice,1,2,2.0,3,3,0,3
1155,1279,w6ebaea9,Animal,1.0,4894.0,1,4,2,choice,3,1,3.0,3,3,1,2
1156,1280,w6ebaea9,Animal,0.0,3932.0,1,1,3,choice,2,-1,-1.0,2,2,0,2
1157,1281,w6ebaea9,Large,1.0,2685.0,0,2,3,choice,4,-1,0.0,2,2,1,3
1158,1282,w6ebaea9,Pattern,1.0,1846.0,1,3,3,choice,3,1,2.0,2,2,0,4
1159,1283,w6ebaea9,Land,1.0,4883.0,1,4,3,choice,1,2,2.0,2,2,1,5
1160,1284,w6ebaea9,Small,1.0,3166.0,1,1,4,choice,1,1,-1.0,2,2,0,3
1161,1285,w6ebaea9,Pattern,0.0,2342.0,1,2,4,choice,3,-3,-3.0,2,2,2,4
1162,1286,w6ebaea9,Sea,1.0,1003.0,1,3,4,choice,2,1,1.0,2,2,0,1
1163,1287,w6ebaea9,Animal,0.0,3203.0,0,4,4,choice,4,1,-1.0,2,2,1,2
1164,1288,w6ebaea9,Object,0.0,3373.0,1,1,5,choice,3,-1,-1.0,2,2,1,4
1165,1289,w6ebaea9,Large,1.0,4584.0,1,2,5,choice,4,1,0.0,2,2,1,3
1166,1290,w6ebaea9,Land,0.0,2089.0,1,3,5,choice,2,-1,-1.0,2,2,2,5
1167,1291,w6ebaea9,Solid,1.0,1407.0,0,4,5,choice,1,-1,-1.0,2,2,0,2
1168,1292,w6ebaea9,Pattern,1.0,2286.0,1,1,6,choice,2,1,2.0,3,3,2,4
1169,1293,w6ebaea9,Object,0.0,2284.0,1,2,6,choice,3,-2,-2.0,3,3,2,4
1170,1294,w6ebaea9,Land,0.0,3689.0,1,3,6,choice,4,-2,-1.0,3,3,3,5
1171,1295,w6ebaea9,Small,1.0,2813.0,1,4,6,choice,1,1,1.0,3,3,0,3
1172,1296,w5fb2730,Small,0.0,1899.0,1,1,1,choice,1,-1,-2.0,2,2,0,0
1173,1297,w5fb2730,Land,0.0,4956.0,0,2,1,choice,4,4,1.0,2,2,2,2
1174,1298,w5fb2730,Pattern,1.0,1593.0,1,3,1,choice,3,2,5.0,2,2,1,1
1175,1299,w5fb2730,Object,1.0,1856.0,1,4,1,choice,2,1,1.0,2,2,1,1
1176,1300,w5fb2730,Large,1.0,4674.0,0,1,2,choice,3,-1,0.0,3,3,2,2
1177,1301,w5fb2730,Sea,0.0,2938.0,1,2,2,choice,2,-1,0.0,3,3,1,1
1178,1302,w5fb2730,Object,0.0,623.0,0,3,2,choice,1,2,0.0,3,3,1,1
1179,1303,w5fb2730,Solid,0.0,1472.0,0,4,2,choice,4,1,0.0,3,3,2,2
1180,1304,w06866f0,Animal,,,0,1,1,choice,3,-2,-4.0,5,5,2,2
1181,1305,w06866f0,Pattern,1.0,5176.0,1,2,1,choice,1,2,2.0,5,5,1,1
1182,1306,w06866f0,Small,0.0,4854.0,0,3,1,choice,2,1,0.0,5,5,2,2
1183,1307,w06866f0,Land,1.0,2268.0,1,4,1,choice,4,1,0.0,5,5,4,4
1184,1308,w06866f0,Sea,1.0,3900.0,1,1,2,choice,3,2,2.0,5,5,2,3
1185,1309,w06866f0,Pattern,0.0,5171.0,1,2,2,choice,1,-2,-2.0,5,5,1,1
1186,1310,w06866f0,Small,0.0,2756.0,1,3,2,choice,4,-3,-3.0,5,5,4,4
1187,1311,w06866f0,Animal,1.0,3284.0,1,4,2,choice,2,3,3.0,5,5,1,1
1188,1312,w06866f0,Sea,0.0,3320.0,1,1,3,choice,2,-1,-1.0,5,5,2,2
1189,1313,w06866f0,Animal,0.0,3187.0,0,2,3,choice,3,1,-2.0,5,5,2,3
1190,1314,w06866f0,Large,1.0,5044.0,1,3,3,choice,4,4,1.0,5,5,3,4
1191,1315,w06866f0,Solid,1.0,1782.0,1,4,3,choice,1,2,2.0,5,5,1,2
1192,1316,w06866f0,Solid,1.0,2723.0,1,1,4,choice,1,2,2.0,4,4,1,1
1193,1317,w06866f0,Large,1.0,1317.0,0,2,4,choice,4,-5,-4.0,4,4,3,3
1194,1318,w06866f0,Sea,0.0,4676.0,0,3,4,choice,3,1,-1.0,4,4,1,1
1195,1319,w06866f0,Object,0.0,4566.0,1,4,4,choice,2,-4,-3.0,4,4,2,2
1196,1320,w06866f0,Land,1.0,3114.0,1,1,5,choice,3,1,1.0,5,5,3,3
1197,1321,w06866f0,Object,0.0,3317.0,1,2,5,choice,4,-1,0.0,5,5,3,3
1198,1322,w06866f0,Large,1.0,2382.0,1,3,5,choice,1,1,1.0,5,5,0,0
1199,1323,w06866f0,Pattern,0.0,4516.0,1,4,5,choice,2,-1,-1.0,5,5,1,2
1200,1324,w06866f0,Solid,1.0,2868.0,1,1,6,choice,3,2,2.0,6,6,3,3
1201,1325,w06866f0,Land,1.0,1555.0,1,2,6,choice,4,1,1.0,6,6,4,4
1202,1326,w06866f0,Small,0.0,2293.0,1,3,6,choice,2,-3,-3.0,6,6,2,2
1203,1327,w06866f0,Object,0.0,1890.0,1,4,6,choice,1,-1,-1.0,6,6,1,1
1204,1328,w06866f0,Large,0.0,3601.0,1,1,7,choice,3,-1,1.0,4,4,1,2
1205,1329,w06866f0,Land,0.0,1720.0,1,2,7,choice,1,-1,-1.0,4,4,1,2
1206,1330,w06866f0,Animal,1.0,2277.0,1,3,7,choice,4,1,1.0,4,4,3,4
1207,1331,w06866f0,Solid,0.0,1389.0,1,4,7,choice,2,-3,3.0,4,4,1,1
1208,1332,wb14e228,Land,,,0,1,1,choice,2,3,3.0,3,3,1,3
1209,1333,wb14e228,Solid,0.0,2636.0,1,2,1,choice,4,-1,3.0,3,3,3,3
1210,1334,wb14e228,Animal,0.0,1224.0,0,3,1,choice,3,1,1.0,3,3,2,3
1211,1335,wb14e228,Small,1.0,3726.0,1,4,1,choice,1,2,2.0,3,3,0,3
1212,1336,wb14e228,Animal,0.0,5159.0,1,1,2,choice,2,-3,2.0,5,5,1,2
1213,1337,wb14e228,Sea,0.0,5253.0,1,2,2,choice,1,-2,-2.0,5,5,1,1
1214,1338,wb14e228,Large,0.0,1680.0,1,3,2,choice,3,-1,1.0,5,5,3,4
1215,1339,wb14e228,Pattern,1.0,2080.0,1,4,2,choice,4,1,3.0,5,5,4,4
1216,1340,wb14e228,Solid,1.0,7014.0,0,1,3,choice,2,-1,0.0,5,5,1,2
1217,1341,wb14e228,Small,1.0,3460.0,0,2,3,choice,4,-1,3.0,5,5,4,5
1218,1342,wb14e228,Sea,0.0,2916.0,1,3,3,choice,3,-5,-2.0,5,5,3,3
1219,1343,wb14e228,Animal,1.0,3665.0,1,4,3,choice,1,1,2.0,5,5,1,1
1220,1344,wb14e228,Large,0.0,3741.0,0,1,4,choice,4,1,1.0,6,6,4,4
1221,1345,wb14e228,Object,0.0,4500.0,1,2,4,choice,2,-4,-4.0,6,6,2,2
1222,1346,wb14e228,Solid,0.0,4439.0,1,3,4,choice,3,-2,-2.0,6,6,3,3
1223,1347,wb14e228,Land,1.0,3030.0,1,4,4,choice,1,2,2.0,6,6,1,1
1224,1348,wb14e228,Small,1.0,4166.0,1,1,5,choice,2,1,1.0,6,6,2,2
1225,1349,wb14e228,Pattern,0.0,4455.0,0,2,5,choice,3,2,2.0,6,6,3,3
1226,1350,wb14e228,Animal,0.0,3602.0,0,3,5,choice,4,1,1.0,6,6,4,4
1227,1351,wb14e228,Land,1.0,4928.0,0,4,5,choice,1,-2,-2.0,6,6,1,1
1228,1352,wb14e228,Solid,0.0,4125.0,1,1,6,choice,3,-1,-1.0,6,6,3,3
1229,1353,wb14e228,Object,0.0,3459.0,1,2,6,choice,1,-1,-1.0,6,6,1,1
1230,1354,wb14e228,Large,1.0,4287.0,1,3,6,choice,2,1,1.0,6,6,2,2
1231,1355,wb14e228,Land,1.0,4380.0,0,4,6,choice,4,-3,-3.0,6,6,4,4
1232,1356,wb14e228,Pattern,1.0,2201.0,1,1,7,choice,4,3,1.0,6,6,4,4
1233,1357,wb14e228,Object,1.0,1799.0,1,2,7,choice,3,1,-1.0,6,6,3,3
1234,1358,wb14e228,Sea,0.0,1306.0,1,3,7,choice,1,-1,-1.0,6,6,1,1
1235,1359,wb14e228,Large,1.0,1484.0,1,4,7,choice,2,3,1.0,6,6,2,2
1236,1360,wed2778e,Small,1.0,3151.0,0,1,1,choice,1,-2,-1.0,6,6,1,1
1237,1361,wed2778e,Animal,0.0,3645.0,0,2,1,choice,3,2,2.0,6,6,3,3
1238,1362,wed2778e,Land,0.0,1417.0,1,3,1,choice,2,-3,-2.0,6,6,2,2
1239,1363,wed2778e,Solid,0.0,3618.0,1,4,1,choice,4,-3,-1.0,6,6,4,4
1240,1364,wed2778e,Object,1.0,5091.0,1,1,2,choice,4,1,1.0,5,5,3,3
1241,1365,wed2778e,Small,0.0,3628.0,1,2,2,choice,3,-2,-2.0,5,5,3,3
1242,1366,wed2778e,Pattern,0.0,4842.0,1,3,2,choice,1,-1,-1.0,5,5,1,1
1243,1367,wed2778e,Land,0.0,4006.0,1,4,2,choice,2,-2,-2.0,5,5,1,1
1244,1368,wed2778e,Object,0.0,5074.0,1,1,3,choice,4,-4,-5.0,6,6,4,4
1245,1369,wed2778e,Solid,0.0,5212.0,1,2,3,choice,3,-3,-3.0,6,6,3,3
1246,1370,wed2778e,Land,1.0,5045.0,1,3,3,choice,1,1,1.0,6,6,1,1
1247,1371,wed2778e,Large,0.0,3996.0,1,4,3,choice,2,-1,-1.0,6,6,2,2
1248,1372,wed2778e,Animal,1.0,3735.0,1,1,4,choice,1,2,2.0,5,5,1,1
1249,1373,wed2778e,Pattern,0.0,3536.0,1,2,4,choice,4,-2,-1.0,5,5,3,3
1250,1374,wed2778e,Sea,1.0,3479.0,1,3,4,choice,3,3,3.0,5,5,2,2
1251,1375,wed2778e,Large,1.0,3803.0,1,4,4,choice,2,1,2.0,5,5,2,2
1252,1376,wed2778e,Sea,1.0,4146.0,1,1,5,choice,2,3,2.0,6,6,2,2
1253,1377,wed2778e,Object,0.0,5200.0,1,2,5,choice,3,-1,-1.0,6,6,3,3
1254,1378,wed2778e,Large,1.0,3127.0,1,3,5,choice,1,2,2.0,6,6,1,1
1255,1379,wed2778e,Pattern,1.0,4629.0,1,4,5,choice,4,1,0.0,6,6,4,4
1256,1380,wed2778e,Small,0.0,4365.0,0,1,6,choice,2,1,1.0,6,6,2,2
1257,1381,wed2778e,Object,0.0,3446.0,1,2,6,choice,1,-2,-2.0,6,6,1,1
1258,1382,wed2778e,Land,0.0,4684.0,1,3,6,choice,3,-1,0.0,6,6,3,3
1259,1383,wed2778e,Pattern,1.0,4466.0,1,4,6,choice,4,1,1.0,6,6,4,4
1260,1384,wed2778e,Animal,0.0,4004.0,1,1,7,choice,3,-1,-1.0,6,6,3,3
1261,1385,wed2778e,Small,1.0,5175.0,1,2,7,choice,4,1,1.0,6,6,4,4
1262,1386,wed2778e,Sea,1.0,3541.0,1,3,7,choice,1,2,2.0,6,6,1,1
1263,1387,wed2778e,Solid,0.0,4604.0,1,4,7,choice,2,-3,-3.0,6,6,2,2
1264,1388,w0a27d42,Animal,,,0,1,1,choice,3,-1,-4.0,4,4,1,2
1265,1389,w0a27d42,Land,1.0,3421.0,1,2,1,choice,2,1,1.0,4,4,1,3
1266,1390,w0a27d42,Solid,1.0,2440.0,1,3,1,choice,4,5,1.0,4,4,3,4
1267,1391,w0a27d42,Small,1.0,4341.0,1,4,1,choice,1,2,2.0,4,4,1,2
1268,1392,w0a27d42,Sea,1.0,3173.0,1,1,2,choice,1,2,2.0,6,6,1,1
1269,1393,w0a27d42,Large,1.0,3930.0,1,2,2,choice,3,2,3.0,6,6,3,3
1270,1394,w0a27d42,Pattern,1.0,1413.0,1,3,2,choice,4,1,4.0,6,6,4,4
1271,1395,w0a27d42,Animal,0.0,2585.0,1,4,2,choice,2,-3,-2.0,6,6,2,2
1272,1396,w0a27d42,Small,0.0,3572.0,0,1,3,choice,4,1,1.0,3,3,3,3
1273,1397,w0a27d42,Animal,0.0,4459.0,1,2,3,choice,1,-1,1.0,3,3,1,1
1274,1398,w0a27d42,Sea,0.0,2109.0,0,3,3,choice,3,5,-2.0,3,3,2,2
1275,1399,w0a27d42,Solid,1.0,1124.0,1,4,3,choice,2,1,-4.0,3,3,1,1
1276,1400,w0a27d42,Large,1.0,4309.0,0,1,4,choice,4,-2,2.0,5,5,3,4
1277,1401,w0a27d42,Land,0.0,2570.0,0,2,4,choice,1,1,1.0,5,5,1,2
1278,1402,w0a27d42,Object,1.0,1972.0,0,3,4,choice,2,-3,0.0,5,5,2,3
1279,1403,w0a27d42,Solid,1.0,2378.0,0,4,4,choice,3,-2,1.0,5,5,3,4
1280,1404,w0a27d42,Animal,0.0,3764.0,1,1,5,choice,4,-2,3.0,3,3,3,4
1281,1405,w0a27d42,Land,0.0,3185.0,1,2,5,choice,1,-1,2.0,3,3,0,1
1282,1406,w0a27d42,Pattern,1.0,1380.0,1,3,5,choice,3,5,0.0,3,3,1,2
1283,1407,w0a27d42,Small,1.0,2013.0,1,4,5,choice,2,1,3.0,3,3,1,2
1284,1408,w0a27d42,Object,0.0,5377.0,1,1,6,choice,1,-1,1.0,4,4,1,2
1285,1409,w0a27d42,Solid,1.0,1597.0,1,2,6,choice,3,1,2.0,4,4,2,3
1286,1410,w0a27d42,Land,1.0,1769.0,0,3,6,choice,4,-3,1.0,4,4,2,2
1287,1411,w0a27d42,Large,0.0,2529.0,1,4,6,choice,2,-2,0.0,4,4,2,3
1288,1412,w0a27d42,Large,1.0,4260.0,0,1,7,choice,2,-1,-3.0,4,4,1,2
1289,1413,w0a27d42,Pattern,0.0,5790.0,1,2,7,choice,4,-2,-4.0,4,4,3,4
1290,1414,w0a27d42,Sea,0.0,3838.0,0,3,7,choice,1,1,-2.0,4,4,1,3
1291,1415,w0a27d42,Object,1.0,1460.0,0,4,7,choice,3,-3,0.0,4,4,3,4
1292,1416,wa90a378,Small,1.0,3922.0,1,1,1,choice,1,1,1.0,4,4,0,1
1293,1417,wa90a378,Land,,,0,2,1,choice,2,3,3.0,4,4,1,3
1294,1418,wa90a378,Animal,0.0,2237.0,1,3,1,choice,3,-1,-2.0,4,4,2,4
1295,1419,wa90a378,Solid,1.0,2305.0,1,4,1,choice,4,3,3.0,4,4,3,3
1296,1420,wa90a378,Pattern,1.0,4223.0,1,1,2,choice,4,4,4.0,4,4,3,3
1297,1421,wa90a378,Sea,0.0,6023.0,0,2,2,choice,1,2,2.0,4,4,1,2
1298,1422,wa90a378,Animal,0.0,3151.0,1,3,2,choice,2,-4,-4.0,4,4,1,3
1299,1423,wa90a378,Large,1.0,4028.0,1,4,2,choice,3,2,2.0,4,4,2,4
1300,1424,wa90a378,Small,,,0,1,3,choice,4,1,1.0,4,4,3,4
1301,1425,wa90a378,Sea,1.0,1106.0,0,2,3,choice,3,-5,-1.0,4,4,2,2
1302,1426,wa90a378,Solid,0.0,230.0,0,3,3,choice,2,1,-3.0,4,4,0,1
1303,1427,wa90a378,Animal,1.0,702.0,1,4,3,choice,1,2,2.0,4,4,1,1
1304,1428,wa90a378,Large,0.0,3656.0,1,1,4,choice,4,-2,-2.0,6,6,4,4
1305,1429,wa90a378,Object,0.0,4674.0,0,2,4,choice,2,1,1.0,6,6,2,2
1306,1430,wa90a378,Land,0.0,3462.0,1,3,4,choice,1,-1,-1.0,6,6,1,1
1307,1431,wa90a378,Solid,1.0,4813.0,1,4,4,choice,3,3,3.0,6,6,3,3
1308,1432,wa90a378,Small,,,0,1,5,choice,2,-2,-2.0,6,6,2,2
1309,1433,wa90a378,Land,0.0,2473.0,1,2,5,choice,1,-2,-2.0,6,6,1,1
1310,1434,wa90a378,Animal,1.0,4759.0,1,3,5,choice,4,1,1.0,6,6,4,4
1311,1435,wa90a378,Pattern,0.0,2088.0,0,4,5,choice,3,3,3.0,6,6,3,3
1312,1436,wa90a378,Land,0.0,1100.0,1,1,6,choice,4,-2,-2.0,5,5,3,3
1313,1437,wa90a378,Object,0.0,5257.0,1,2,6,choice,1,-1,-1.0,5,5,1,1
1314,1438,wa90a378,Large,1.0,2187.0,1,3,6,choice,2,1,1.0,5,5,1,2
1315,1439,wa90a378,Solid,1.0,4458.0,0,4,6,choice,3,-1,-1.0,5,5,3,4
1316,1440,wa90a378,Pattern,0.0,704.0,1,1,7,choice,4,-1,3.0,2,2,1,2
1317,1441,wa90a378,Large,1.0,79.0,0,2,7,choice,2,-1,0.0,2,2,1,4
1318,1442,wa90a378,Object,1.0,423.0,0,3,7,choice,3,-3,-1.0,2,2,1,3
1319,1443,wa90a378,Sea,1.0,1686.0,1,4,7,choice,1,2,1.0,2,2,0,2
1320,1444,wf8bf1c3,Animal,0.0,3521.0,0,1,1,choice,3,1,1.0,5,5,3,3
1321,1445,wf8bf1c3,Small,1.0,5129.0,0,2,1,choice,1,-2,1.0,5,5,1,1
1322,1446,wf8bf1c3,Land,1.0,3615.0,0,3,1,choice,2,-1,-1.0,5,5,2,2
1323,1447,wf8bf1c3,Solid,1.0,7111.0,0,4,1,choice,4,-1,2.0,5,5,4,4
1324,1448,wf8bf1c3,Object,,,0,1,2,choice,4,2,2.0,6,6,4,4
1325,1449,wf8bf1c3,Small,1.0,5446.0,0,2,2,choice,3,-1,-1.0,6,6,3,3
1326,1450,wf8bf1c3,Land,1.0,2434.0,1,3,2,choice,2,2,2.0,6,6,2,2
1327,1451,wf8bf1c3,Pattern,1.0,2242.0,1,4,2,choice,1,1,1.0,6,6,1,1
1328,1452,wf8bf1c3,Object,0.0,2163.0,1,1,3,choice,4,-4,-6.0,5,5,3,3
1329,1453,wf8bf1c3,Large,0.0,3496.0,1,2,3,choice,2,-1,-3.0,5,5,1,1
1330,1454,wf8bf1c3,Solid,0.0,3181.0,0,3,3,choice,3,1,-1.0,5,5,2,2
1331,1455,wf8bf1c3,Land,1.0,2030.0,1,4,3,choice,1,2,2.0,5,5,1,1
1332,1456,wf8bf1c3,Large,0.0,2818.0,1,1,4,choice,2,-1,-1.0,6,6,2,2
1333,1457,wf8bf1c3,Pattern,1.0,3332.0,1,2,4,choice,4,2,2.0,6,6,4,4
1334,1458,wf8bf1c3,Sea,0.0,2572.0,0,3,4,choice,3,1,1.0,6,6,3,3
1335,1459,wf8bf1c3,Animal,0.0,959.0,0,4,4,choice,1,1,1.0,6,6,1,1
1336,1460,wf8bf1c3,Sea,1.0,4787.0,1,1,5,choice,2,3,2.0,6,6,2,2
1337,1461,wf8bf1c3,Object,0.0,2133.0,1,2,5,choice,3,-3,-3.0,6,6,3,3
1338,1462,wf8bf1c3,Large,0.0,1829.0,1,3,5,choice,1,-1,-1.0,6,6,1,1
1339,1463,wf8bf1c3,Pattern,1.0,1879.0,1,4,5,choice,4,1,1.0,6,6,4,4
1340,1464,wf8bf1c3,Object,0.0,3462.0,1,1,6,choice,1,-2,-1.0,5,5,0,0
1341,1465,wf8bf1c3,Pattern,1.0,2567.0,1,2,6,choice,4,2,0.0,5,5,4,4
1342,1466,wf8bf1c3,Small,0.0,699.0,0,3,6,choice,2,3,3.0,5,5,2,2
1343,1467,wf8bf1c3,Land,0.0,611.0,1,4,6,choice,3,-1,-1.0,5,5,3,3
1344,1468,wf8bf1c3,Sea,1.0,2768.0,1,1,7,choice,1,2,2.0,4,4,1,1
1345,1469,wf8bf1c3,Solid,0.0,3151.0,1,2,7,choice,2,-3,0.0,4,4,0,0
1346,1470,wf8bf1c3,Animal,0.0,3961.0,1,3,7,choice,3,-3,0.0,4,4,2,2
1347,1471,wf8bf1c3,Small,0.0,2514.0,1,4,7,choice,4,-3,0.0,4,4,2,2
1348,1500,w8e5f535,Land,1.0,5287.0,1,1,1,choice,2,1,-1.0,3,3,2,2
1349,1501,w8e5f535,Animal,0.0,4539.0,1,2,1,choice,3,-1,1.0,3,3,1,1
1350,1502,w8e5f535,Small,1.0,5058.0,1,3,1,choice,1,2,2.0,3,3,0,0
1351,1503,w8e5f535,Solid,0.0,2060.0,0,4,1,choice,4,5,0.0,3,3,2,2
1352,1504,w8e5f535,Object,1.0,4133.0,1,1,2,choice,4,2,2.0,4,4,3,3
1353,1505,w8e5f535,Pattern,0.0,2850.0,0,2,2,choice,1,2,2.0,4,4,1,1
1354,1506,w8e5f535,Land,1.0,4740.0,1,3,2,choice,2,4,4.0,4,4,2,2
1355,1507,w8e5f535,Small,0.0,5182.0,1,4,2,choice,3,-1,-1.0,4,4,2,2
1356,1508,w8e5f535,Solid,1.0,4013.0,0,1,3,choice,3,-1,-1.0,5,5,3,3
1357,1509,w8e5f535,Land,1.0,5961.0,1,2,3,choice,1,2,2.0,5,5,1,1
1358,1510,w8e5f535,Large,0.0,5021.0,1,3,3,choice,2,-1,0.0,5,5,2,2
1359,1511,w8e5f535,Object,,,0,4,3,choice,4,-1,0.0,5,5,3,3
1360,1512,w8e5f535,Animal,1.0,5756.0,1,1,4,choice,1,1,2.0,6,6,1,1
1361,1513,w8e5f535,Pattern,1.0,4189.0,1,2,4,choice,4,2,3.0,6,6,4,4
1362,1514,w8e5f535,Sea,1.0,3968.0,1,3,4,choice,3,1,2.0,6,6,3,3
1363,1515,w8e5f535,Large,1.0,2444.0,0,4,4,choice,2,-1,4.0,6,6,2,2
1364,1516,w8e5f535,Object,1.0,4596.0,1,1,5,choice,3,2,2.0,4,4,2,3
1365,1517,w8e5f535,Sea,1.0,4273.0,1,2,5,choice,2,1,0.0,4,4,1,2
1366,1518,w8e5f535,Pattern,0.0,3479.0,0,3,5,choice,4,1,2.0,4,4,2,2
1367,1519,w8e5f535,Large,1.0,3767.0,0,4,5,choice,1,-1,2.0,4,4,1,1
1368,1520,w8e5f535,Object,0.0,4399.0,0,1,6,choice,1,1,2.0,4,4,1,1
1369,1521,w8e5f535,Pattern,1.0,1580.0,1,2,6,choice,4,1,1.0,4,4,2,2
1370,1522,w8e5f535,Land,1.0,3599.0,0,3,6,choice,3,-1,2.0,4,4,1,1
1371,1523,w8e5f535,Small,0.0,806.0,0,4,6,choice,2,1,1.0,4,4,1,1
1372,1524,w8e5f535,Small,,,0,1,7,choice,4,1,-3.0,3,3,1,1
1373,1525,w8e5f535,Solid,0.0,3230.0,1,2,7,choice,2,-3,-3.0,3,3,1,1
1374,1526,w8e5f535,Sea,0.0,3609.0,0,3,7,choice,1,2,2.0,3,3,0,0
1375,1527,w8e5f535,Animal,0.0,1759.0,1,4,7,choice,3,-2,-5.0,3,3,1,1
1376,1528,waa6a3c8,Animal,1.0,3959.0,0,1,1,choice,3,-3,3.0,3,3,2,3
1377,1529,waa6a3c8,Land,0.0,3453.0,1,2,1,choice,4,-1,4.0,3,3,2,4
1378,1530,waa6a3c8,Small,0.0,2180.0,1,3,1,choice,2,-4,2.0,3,3,1,3
1379,1531,waa6a3c8,Pattern,0.0,1896.0,0,4,1,choice,1,2,1.0,3,3,0,3
1380,1532,waa6a3c8,Pattern,1.0,4010.0,1,1,2,choice,1,2,1.0,2,2,0,1
1381,1533,waa6a3c8,Small,1.0,4780.0,0,2,2,choice,4,-1,-2.0,2,2,1,2
1382,1534,waa6a3c8,Animal,0.0,5253.0,1,3,2,choice,2,-4,-4.0,2,2,1,2
1383,1535,waa6a3c8,Sea,1.0,6677.0,0,4,2,choice,3,-3,-3.0,2,2,1,2
1384,1536,waa6a3c8,Animal,0.0,5010.0,1,1,3,choice,3,-2,0.0,2,2,1,3
1385,1537,waa6a3c8,Solid,1.0,2169.0,0,2,3,choice,1,-2,2.0,2,2,1,4
1386,1538,waa6a3c8,Sea,1.0,3992.0,1,3,3,choice,2,4,2.0,2,2,0,2
1387,1539,waa6a3c8,Large,1.0,1588.0,0,4,3,choice,4,-1,2.0,2,2,2,3
1388,1540,waa6a3c8,Large,1.0,2554.0,1,1,4,choice,4,2,0.0,4,4,3,5
1389,1541,waa6a3c8,Solid,0.0,3759.0,1,2,4,choice,1,-1,-2.0,4,4,0,2
1390,1542,waa6a3c8,Object,1.0,1732.0,1,3,4,choice,2,3,3.0,4,4,2,3
1391,1543,waa6a3c8,Sea,1.0,1435.0,1,4,4,choice,3,2,2.0,4,4,2,2
1392,1544,waa6a3c8,Object,0.0,2288.0,1,1,5,choice,4,-3,0.0,4,4,2,3
1393,1545,waa6a3c8,Pattern,1.0,1250.0,0,2,5,choice,2,-1,3.0,4,4,1,3
1394,1546,waa6a3c8,Land,1.0,3158.0,1,3,5,choice,3,1,-3.0,4,4,3,4
1395,1547,waa6a3c8,Large,1.0,2788.0,0,4,5,choice,1,-2,2.0,4,4,0,1
1396,1548,waa6a3c8,Solid,1.0,4610.0,1,1,6,choice,3,1,0.0,3,3,1,3
1397,1549,waa6a3c8,Object,1.0,1370.0,1,2,6,choice,1,2,1.0,3,3,1,3
1398,1550,waa6a3c8,Land,1.0,4899.0,0,3,6,choice,4,-1,1.0,3,3,3,4
1399,1551,waa6a3c8,Small,1.0,1661.0,1,4,6,choice,2,3,2.0,3,3,1,3
1400,1552,waa6a3c8,Solid,0.0,1898.0,0,1,7,choice,2,4,1.0,3,3,1,2
1401,1553,waa6a3c8,Large,1.0,1448.0,1,2,7,choice,3,3,2.0,3,3,2,3
1402,1554,waa6a3c8,Animal,1.0,843.0,1,3,7,choice,4,2,5.0,3,3,3,4
1403,1555,waa6a3c8,Land,0.0,2094.0,1,4,7,choice,1,-1,1.0,3,3,0,3
1404,1556,w80189d3,Animal,,,0,1,1,choice,4,5,1.0,4,4,3,3
1405,1557,w80189d3,Large,0.0,3638.0,1,2,1,choice,2,-3,-4.0,4,4,2,2
1406,1558,w80189d3,Land,1.0,1456.0,0,3,1,choice,3,-1,-2.0,4,4,3,3
1407,1559,w80189d3,Solid,0.0,2134.0,0,4,1,choice,1,2,2.0,4,4,1,1
1408,1560,w80189d3,Sea,1.0,4153.0,1,1,2,choice,2,3,3.0,2,2,1,1
1409,1561,w80189d3,Small,1.0,2596.0,1,2,2,choice,3,2,2.0,2,2,2,2
1410,1562,w80189d3,Animal,1.0,2677.0,0,3,2,choice,4,-1,2.0,2,2,1,2
1411,1563,w80189d3,Pattern,0.0,1347.0,0,4,2,choice,1,1,2.0,2,2,1,2
1412,1564,w80189d3,Pattern,1.0,4791.0,1,1,3,choice,3,2,-1.0,6,6,1,1
1413,1565,w80189d3,Object,1.0,1556.0,0,2,3,choice,4,-2,1.0,6,6,2,2
1414,1566,w80189d3,Land,0.0,704.0,0,3,3,choice,2,1,-2.0,6,6,0,0
1415,1567,w80189d3,Large,1.0,421.0,0,4,3,choice,1,-2,2.0,6,6,1,1
1416,1568,w80189d3,Animal,1.0,1771.0,1,1,4,choice,4,1,0.0,2,2,1,2
1417,1569,w80189d3,Land,1.0,726.0,0,2,4,choice,1,-1,-1.0,2,2,1,2
1418,1570,w80189d3,Small,1.0,460.0,1,3,4,choice,2,2,1.0,2,2,1,2
1419,1571,w80189d3,Solid,1.0,392.0,0,4,4,choice,3,-2,-1.0,2,2,1,2
1420,1572,w80189d3,Solid,1.0,2241.0,1,1,5,choice,3,1,1.0,2,2,1,2
1421,1573,w80189d3,Large,0.0,688.0,0,2,5,choice,2,4,-3.0,2,2,1,2
1422,1574,w80189d3,Sea,0.0,898.0,1,3,5,choice,1,-1,-1.0,2,2,0,3
1423,1575,w80189d3,Object,0.0,553.0,1,4,5,choice,4,-2,1.0,2,2,2,3
1424,1576,w80189d3,Object,0.0,1518.0,1,1,6,choice,1,-1,1.0,2,2,0,3
1425,1577,w80189d3,Pattern,1.0,726.0,1,2,6,choice,4,1,-4.0,2,2,2,5
1426,1578,w80189d3,Land,1.0,1504.0,0,3,6,choice,3,-2,-1.0,2,2,1,4
1427,1579,w80189d3,Large,0.0,1212.0,1,4,6,choice,2,-1,1.0,2,2,0,2
1428,1580,w80189d3,Small,1.0,3118.0,1,1,7,choice,1,2,-1.0,5,5,1,1
1429,1581,w80189d3,Pattern,1.0,628.0,1,2,7,choice,4,2,-3.0,5,5,3,3
1430,1582,w80189d3,Sea,1.0,704.0,0,3,7,choice,3,-1,0.0,5,5,3,3
1431,1583,w80189d3,Animal,1.0,626.0,1,4,7,choice,2,4,-3.0,5,5,2,3
1432,1588,w6fe5d47,Animal,0.0,7197.0,1,1,1,choice,3,-3,-5.0,2,2,0,1
1433,1589,w6fe5d47,Solid,1.0,2206.0,1,2,1,choice,4,2,-4.0,2,2,1,1
1434,1590,w6fe5d47,Small,0.0,4837.0,0,3,1,choice,1,1,1.0,2,2,0,2
1435,1591,w6fe5d47,Land,1.0,2954.0,0,4,1,choice,2,-1,-1.0,2,2,0,2
1436,1592,w6fe5d47,Sea,0.0,3491.0,0,1,2,choice,1,1,1.0,5,5,1,1
1437,1593,w6fe5d47,Animal,1.0,4599.0,0,2,2,choice,2,-4,0.0,5,5,1,1
1438,1594,w6fe5d47,Pattern,1.0,1412.0,1,3,2,choice,4,2,3.0,5,5,3,3
1439,1595,w6fe5d47,Large,1.0,608.0,1,4,2,choice,3,1,2.0,5,5,2,2
1440,1596,w6fe5d47,Sea,1.0,2474.0,1,1,3,choice,3,1,3.0,2,2,1,1
1441,1597,w6fe5d47,Animal,0.0,4769.0,1,2,3,choice,1,-2,-1.0,2,2,0,0
1442,1598,w6fe5d47,Solid,1.0,1802.0,0,3,3,choice,2,-1,3.0,2,2,0,0
1443,1599,w6fe5d47,Small,1.0,1125.0,1,4,3,choice,4,2,2.0,2,2,1,1
1444,1600,w6fe5d47,Land,0.0,1791.0,0,1,5,choice,1,2,1.0,1,1,1,2
1445,1601,w6fe5d47,Pattern,1.0,418.0,0,2,5,choice,3,-1,1.0,1,1,0,1
1446,1602,w6fe5d47,Animal,0.0,355.0,1,3,5,choice,4,-1,-2.0,1,1,1,2
1447,1603,w6fe5d47,Small,1.0,754.0,0,4,5,choice,2,-3,-1.0,1,1,0,0
1448,1604,w6fe5d47,Land,0.0,1349.0,1,1,6,choice,4,-4,2.0,1,1,1,1
1449,1605,w6fe5d47,Solid,1.0,2911.0,1,2,6,choice,3,2,0.0,1,1,0,1
1450,1606,w6fe5d47,Object,1.0,3585.0,0,3,6,choice,1,-1,1.0,1,1,0,1
1451,1607,w6fe5d47,Large,0.0,1616.0,1,4,6,choice,2,-3,2.0,1,1,1,2
1452,1608,w6fe5d47,Large,0.0,871.0,0,1,7,choice,2,4,1.0,2,2,1,1
1453,1609,w6fe5d47,Pattern,1.0,377.0,1,2,7,choice,4,1,3.0,2,2,1,1
1454,1610,w6fe5d47,Sea,1.0,1043.0,0,3,7,choice,1,-2,1.0,2,2,0,0
1455,1611,w6fe5d47,Object,1.0,1350.0,0,4,7,choice,3,-1,5.0,2,2,1,1
1456,1612,w45af4af,Animal,1.0,2998.0,1,1,1,choice,3,2,-1.0,4,4,2,3
1457,1613,w45af4af,Pattern,0.0,2578.0,1,2,1,choice,1,-1,-1.0,4,4,0,1
1458,1614,w45af4af,Small,1.0,1732.0,1,3,1,choice,2,2,0.0,4,4,2,2
1459,1615,w45af4af,Land,1.0,5056.0,1,4,1,choice,4,3,-2.0,4,4,3,4
1460,1616,w45af4af,Pattern,0.0,3097.0,1,1,2,choice,1,-2,-2.0,5,5,1,1
1461,1617,w45af4af,Animal,1.0,1950.0,0,2,2,choice,2,-1,-1.0,5,5,2,2
1462,1618,w45af4af,Small,0.0,6030.0,1,3,2,choice,4,-1,-4.0,5,5,4,4
1463,1619,w45af4af,Sea,1.0,1041.0,1,4,2,choice,3,1,1.0,5,5,3,3
1464,1620,w45af4af,Large,1.0,3466.0,0,1,3,choice,4,-1,-1.0,4,4,3,4
1465,1621,w45af4af,Animal,1.0,2731.0,0,2,3,choice,3,-1,-1.0,4,4,1,2
1466,1622,w45af4af,Sea,0.0,4449.0,0,3,3,choice,2,4,0.0,4,4,2,3
1467,1623,w45af4af,Solid,1.0,1333.0,1,4,3,choice,1,1,1.0,4,4,1,2
1468,1624,w45af4af,Large,1.0,2121.0,1,1,4,choice,4,1,0.0,5,5,4,4
1469,1625,w45af4af,Sea,1.0,3796.0,1,2,4,choice,3,3,1.0,5,5,2,2
1470,1626,w45af4af,Solid,0.0,2163.0,1,3,4,choice,1,-2,-2.0,5,5,1,1
1471,1627,w45af4af,Object,0.0,4124.0,0,4,4,choice,2,1,-3.0,5,5,2,2
1472,1628,w45af4af,Pattern,1.0,4685.0,1,1,5,choice,2,4,-3.0,4,4,0,1
1473,1629,w45af4af,Land,0.0,4149.0,1,2,5,choice,3,-2,-2.0,4,4,2,3
1474,1630,w45af4af,Object,0.0,1857.0,0,3,5,choice,4,3,-6.0,4,4,2,3
1475,1631,w45af4af,Large,0.0,3288.0,0,4,5,choice,1,2,-2.0,4,4,0,2
1476,1632,w45af4af,Solid,0.0,3471.0,1,1,6,choice,3,-2,-1.0,6,6,3,3
1477,1633,w45af4af,Small,1.0,648.0,1,2,6,choice,2,4,4.0,6,6,2,2
1478,1634,w45af4af,Object,0.0,4876.0,0,3,6,choice,1,2,2.0,6,6,1,1
1479,1635,w45af4af,Land,0.0,4155.0,0,4,6,choice,4,3,1.0,6,6,4,4
1480,1636,w45af4af,Animal,0.0,2313.0,0,1,7,choice,4,1,-1.0,5,5,4,4
1481,1637,w45af4af,Solid,1.0,2868.0,1,2,7,choice,2,1,0.0,5,5,2,2
1482,1638,w45af4af,Large,0.0,2000.0,1,3,7,choice,3,-1,-2.0,5,5,3,3
1483,1639,w45af4af,Land,0.0,1999.0,0,4,7,choice,1,2,2.0,5,5,1,1
1484,1640,wb2e2d84,Land,1.0,3208.0,0,1,1,choice,2,-1,0.0,2,2,1,3
1485,1641,wb2e2d84,Animal,1.0,3820.0,0,2,1,choice,3,-6,0.0,2,2,0,0
1486,1642,wb2e2d84,Solid,1.0,3877.0,0,3,1,choice,4,-1,3.0,2,2,2,2
1487,1643,wb2e2d84,Small,1.0,2549.0,1,4,1,choice,1,1,2.0,2,2,1,2
1488,1644,wb2e2d84,Large,0.0,3113.0,1,1,2,choice,3,-4,-2.0,4,4,1,3
1489,1645,wb2e2d84,Animal,1.0,1483.0,1,2,2,choice,2,1,-1.0,4,4,1,2
1490,1646,wb2e2d84,Pattern,0.0,2992.0,1,3,2,choice,4,-3,-3.0,4,4,2,2
1491,1647,wb2e2d84,Sea,1.0,3256.0,0,4,2,choice,1,-1,-2.0,4,4,0,2
1492,1648,wb2e2d84,Animal,1.0,1426.0,0,1,3,choice,1,-2,-2.0,1,1,0,2
1493,1649,wb2e2d84,Small,1.0,1780.0,0,2,3,choice,4,-2,-1.0,1,1,1,3
1494,1650,wb2e2d84,Solid,1.0,2003.0,1,3,3,choice,2,1,4.0,1,1,0,4
1495,1651,wb2e2d84,Sea,0.0,876.0,1,4,3,choice,3,-1,1.0,1,1,1,3
1496,1652,wb2e2d84,Object,1.0,1384.0,1,1,4,choice,2,1,0.0,5,5,2,3
1497,1653,wb2e2d84,Solid,1.0,2764.0,0,2,4,choice,3,-1,-1.0,5,5,3,3
1498,1654,wb2e2d84,Land,1.0,1511.0,1,3,4,choice,1,1,1.0,5,5,1,1
1499,1655,wb2e2d84,Large,0.0,2303.0,1,4,4,choice,4,-1,0.0,5,5,3,3
1500,1656,wb2e2d84,Animal,1.0,3012.0,0,1,5,choice,4,-3,0.0,3,3,2,3
1501,1657,wb2e2d84,Small,1.0,2372.0,1,2,5,choice,2,1,1.0,3,3,1,2
1502,1658,wb2e2d84,Land,1.0,2241.0,0,3,5,choice,1,-2,-2.0,3,3,0,1
1503,1659,wb2e2d84,Pattern,0.0,1342.0,0,4,5,choice,3,5,2.0,3,3,2,3
1504,1660,wb2e2d84,Solid,1.0,3527.0,0,1,6,choice,3,-1,2.0,4,4,2,3
1505,1661,wb2e2d84,Large,0.0,1080.0,0,2,6,choice,2,1,3.0,4,4,1,3
1506,1662,wb2e2d84,Object,1.0,782.0,0,3,6,choice,1,-1,2.0,4,4,0,0
1507,1663,wb2e2d84,Land,1.0,2611.0,1,4,6,choice,4,2,2.0,4,4,2,3
1508,1664,wb2e2d84,Large,0.0,1799.0,0,1,7,choice,2,1,2.0,3,3,2,4
1509,1665,wb2e2d84,Pattern,0.0,1925.0,0,2,7,choice,4,1,-1.0,3,3,2,3
1510,1666,wb2e2d84,Object,1.0,1006.0,1,3,7,choice,3,5,-3.0,3,3,1,2
1511,1667,wb2e2d84,Sea,0.0,1644.0,1,4,7,choice,1,-1,-1.0,3,3,0,2
1512,1668,w993543c,Land,1.0,2620.0,0,1,1,choice,4,-4,-4.0,3,3,3,4
1513,1669,w993543c,Object,1.0,1575.0,0,2,1,choice,2,-1,0.0,3,3,2,4
1514,1670,w993543c,Pattern,0.0,1916.0,0,3,1,choice,3,2,1.0,3,3,1,3
1515,1671,w993543c,Small,0.0,1417.0,0,4,1,choice,1,2,2.0,3,3,0,1
1516,1672,w993543c,Solid,,,0,1,2,choice,4,-2,-2.0,6,6,4,4
1517,1673,w993543c,Object,0.0,3566.0,1,2,2,choice,1,-2,-2.0,6,6,1,1
1518,1674,w993543c,Large,1.0,3806.0,0,3,2,choice,3,-4,-4.0,6,6,3,3
1519,1675,w993543c,Sea,0.0,7195.0,0,4,2,choice,2,1,1.0,6,6,2,2
1520,1676,w993543c,Animal,1.0,4711.0,1,1,3,choice,4,3,3.0,4,4,2,2
1521,1677,w993543c,Land,1.0,4112.0,0,2,3,choice,3,-2,1.0,4,4,2,2
1522,1678,w993543c,Small,0.0,1692.0,1,3,3,choice,1,-1,-1.0,4,4,0,0
1523,1679,w993543c,Pattern,1.0,2532.0,0,4,3,choice,2,-1,2.0,4,4,2,2
1524,1680,w993543c,Large,0.0,4806.0,1,1,4,choice,3,-2,-2.0,5,5,2,2
1525,1681,w993543c,Pattern,0.0,1450.0,1,2,4,choice,2,-1,-1.0,5,5,1,1
1526,1682,w993543c,Land,1.0,3394.0,1,3,4,choice,1,1,1.0,5,5,1,1
1527,1683,w993543c,Object,1.0,1495.0,1,4,4,choice,4,1,1.0,5,5,3,3
1528,1684,w993543c,Pattern,1.0,2770.0,0,1,5,choice,1,-1,-1.0,4,4,0,0
1529,1685,w993543c,Small,1.0,3542.0,0,2,5,choice,4,-3,-5.0,4,4,2,2
1530,1686,w993543c,Animal,1.0,2727.0,1,3,5,choice,3,1,-1.0,4,4,3,3
1531,1687,w993543c,Sea,0.0,1452.0,1,4,5,choice,2,-3,-3.0,4,4,1,1
1532,1688,w993543c,Solid,1.0,3263.0,0,1,6,choice,1,-2,-2.0,5,5,1,1
1533,1689,w993543c,Sea,0.0,146.0,1,2,6,choice,3,-3,-3.0,5,5,2,2
1534,1690,w993543c,Large,1.0,1726.0,1,3,6,choice,2,2,2.0,5,5,1,1
1535,1691,w993543c,Animal,1.0,1222.0,0,4,6,choice,4,-5,-5.0,5,5,4,4
1536,1692,w993543c,Solid,0.0,4144.0,1,1,7,choice,2,-1,-3.0,3,3,1,1
1537,1693,w993543c,Land,1.0,2349.0,0,2,7,choice,3,-2,-3.0,3,3,2,2
1538,1694,w993543c,Small,0.0,2127.0,0,3,7,choice,4,1,-1.0,3,3,2,2
1539,1695,w993543c,Animal,1.0,4148.0,1,4,7,choice,1,1,1.0,3,3,1,1
1540,1696,wdb97422,Animal,1.0,7136.0,0,1,1,choice,4,-3,3.0,3,3,2,4
1541,1697,wdb97422,Land,,,0,2,1,choice,3,-1,1.0,3,3,1,2
1542,1698,wdb97422,Solid,1.0,2774.0,0,3,1,choice,1,-2,-1.0,3,3,1,3
1543,1699,wdb97422,Large,0.0,2831.0,0,4,1,choice,2,1,0.0,3,3,1,3
1544,1700,wdb97422,Animal,0.0,2362.0,1,1,2,choice,4,-4,-4.0,5,5,3,3
1545,1701,wdb97422,Small,1.0,3706.0,1,2,2,choice,3,1,1.0,5,5,2,2
1546,1702,wdb97422,Sea,1.0,5930.0,0,3,2,choice,2,-1,-1.0,5,5,2,2
1547,1703,wdb97422,Pattern,0.0,4348.0,1,4,2,choice,1,-2,-1.0,5,5,1,1
1548,1704,wdb97422,Pattern,0.0,4063.0,1,1,3,choice,3,-1,-2.0,3,3,2,2
1549,1705,wdb97422,Object,1.0,3214.0,0,2,3,choice,4,-1,1.0,3,3,3,3
