,index,wid,option,choice,rt,correct,trial_number,game,phase,multi_time,dim_shown,n_true_memories,value,remembered_value,n_total_memories_shown,n_total_memories,n_remembered_shown,n_remembered,recalled_mem_value
0,0,wa022482,Animal,1.0,2516.0,0,1,1,choice,After,Category,2,-2,3.0,4,4,2,3,3.0
1,1,wa022482,Scene,0.0,1305.0,0,2,1,choice,After,Category,3,2,0.0,4,4,2,2,2.0
2,3,wa022482,Food,0.0,3310.0,1,1,2,choice,Before,Category,3,-1,-2.0,5,5,3,3,-2.0
3,4,wa022482,Scene,0.0,1852.0,1,2,2,choice,Before,Category,2,-1,0.0,5,5,2,2,0.0
4,6,wa022482,Animal,1.0,2686.0,1,1,3,choice,After,Category,3,2,3.0,3,3,1,1,1.0
5,7,wa022482,Object,0.0,1840.0,1,2,3,choice,After,Category,2,-3,-2.0,3,3,1,1,-2.0
6,9,wa022482,Green,0.0,4030.0,1,1,4,choice,Before,Color,2,-1,-1.0,2,2,1,1,-2.0
7,11,wa022482,Red,0.0,453.0,0,3,4,choice,Before,Color,3,1,-1.0,2,2,1,1,-1.0
8,12,wa022482,Red,1.0,2528.0,0,1,5,choice,After,Color,2,-1,-4.0,3,3,1,2,-2.0
9,13,wa022482,Yellow,1.0,1136.0,0,2,5,choice,After,Color,1,-1,1.0,3,3,1,1,1.0
10,14,wa022482,Green,0.0,373.0,0,3,5,choice,After,Color,3,2,1.0,3,3,1,1,1.0
11,15,wa022482,Blue,1.0,1029.0,1,1,6,choice,Before,Color,3,6,6.0,5,5,3,3,6.0
12,17,wa022482,Red,0.0,289.0,1,3,6,choice,Before,Color,2,-2,-3.0,5,5,2,2,-3.0
13,18,wa022482,Blue,1.0,1438.0,1,1,7,choice,After,Color,2,2,2.0,4,4,2,3,2.0
14,20,wa022482,Green,0.0,424.0,1,3,7,choice,After,Color,3,-1,-1.0,4,4,2,2,0.0
15,21,wa022482,Food,1.0,2086.0,1,1,8,choice,Before,Category,3,3,3.0,1,1,1,2,2.0
16,24,wc263e54,Green,0.0,3119.0,0,1,1,choice,Before,Color,2,1,0.0,5,5,2,2,0.0
17,25,wc263e54,Blue,0.0,2277.0,0,2,1,choice,Before,Color,3,2,0.0,5,5,2,2,0.0
18,26,wc263e54,Yellow,0.0,3682.0,1,3,1,choice,Before,Color,1,-2,0.0,5,5,1,1,0.0
19,27,wc263e54,Scene,0.0,2867.0,0,1,2,choice,After,Category,3,1,0.0,5,5,2,2,0.0
20,28,wc263e54,Food,1.0,4955.0,0,2,2,choice,After,Category,1,-1,0.0,5,5,1,1,0.0
21,29,wc263e54,Object,0.0,4410.0,1,3,2,choice,After,Category,2,-1,0.0,5,5,2,2,0.0
22,30,wc263e54,Scene,1.0,2047.0,1,1,3,choice,Before,Category,1,2,0.0,4,4,1,1,0.0
23,31,wc263e54,Animal,0.0,2458.0,1,2,3,choice,Before,Category,2,-1,0.0,4,4,1,1,0.0
24,32,wc263e54,Food,0.0,1416.0,1,3,3,choice,Before,Category,3,-2,0.0,4,4,2,2,0.0
25,35,wc263e54,Yellow,0.0,5289.0,1,3,4,choice,After,Color,3,-1,0.0,1,1,1,1,0.0
26,36,wc263e54,Food,1.0,1417.0,1,1,5,choice,Before,Category,3,1,0.0,2,2,2,2,0.0
27,40,wc263e54,Food,,,0,2,6,choice,After,Category,3,-2,0.0,1,1,1,1,0.0
28,42,wc263e54,Yellow,0.0,3263.0,1,1,7,choice,Before,Color,2,-1,0.0,5,5,2,2,0.0
29,43,wc263e54,Blue,1.0,3163.0,1,2,7,choice,Before,Color,1,2,0.0,5,5,1,1,0.0
30,44,wc263e54,Red,0.0,2576.0,1,3,7,choice,Before,Color,3,-1,0.0,5,5,2,2,0.0
31,45,wc263e54,Green,1.0,1195.0,1,1,8,choice,After,Color,2,2,0.0,3,3,1,2,0.0
32,46,wc263e54,Red,0.0,1556.0,1,2,8,choice,After,Color,1,-2,0.0,3,3,1,2,0.0
33,47,wc263e54,Blue,0.0,2634.0,1,3,8,choice,After,Color,3,-2,0.0,3,3,1,1,0.0
34,48,w2457106,Green,0.0,2689.0,1,1,1,choice,Before,Color,1,-2,-2.0,5,5,1,1,-2.0
35,49,w2457106,Yellow,0.0,1322.0,0,2,1,choice,Before,Color,3,2,0.0,5,5,2,2,-1.0
36,50,w2457106,Red,1.0,1113.0,0,3,1,choice,Before,Color,2,-1,4.0,5,5,2,3,4.0
37,52,w2457106,Object,1.0,1817.0,1,2,2,choice,After,Category,1,2,2.0,3,3,1,1,2.0
38,53,w2457106,Food,1.0,1080.0,0,3,2,choice,After,Category,2,-1,3.0,3,3,2,2,3.0
39,54,w2457106,Scene,1.0,2120.0,1,1,3,choice,Before,Category,2,1,1.0,5,5,2,2,1.0
40,55,w2457106,Animal,0.0,1620.0,0,2,3,choice,Before,Category,1,2,-1.0,5,5,1,1,-1.0
41,56,w2457106,Food,1.0,1398.0,0,3,3,choice,Before,Category,3,-1,-1.0,5,5,2,2,-3.0
42,58,w2457106,Object,0.0,2654.0,0,2,4,choice,After,Category,1,2,1.0,3,3,1,1,1.0
43,59,w2457106,Scene,0.0,1853.0,1,3,4,choice,After,Category,2,-4,-2.0,3,3,2,2,-2.0
44,60,w2457106,Yellow,1.0,2783.0,0,1,5,choice,Before,Color,1,-2,1.0,4,4,1,2,1.0
45,62,w2457106,Green,1.0,2669.0,0,3,5,choice,Before,Color,3,-2,-2.0,4,4,3,3,-2.0
46,63,w2457106,Blue,0.0,1934.0,1,1,6,choice,After,Color,2,-1,-3.0,4,4,2,3,-3.0
47,65,w2457106,Red,0.0,1875.0,1,3,6,choice,After,Color,3,-3,-1.0,4,4,2,3,-3.0
48,66,w2457106,Red,1.0,2786.0,1,1,7,choice,Before,Color,1,2,1.0,3,3,1,1,1.0
49,68,w2457106,Green,1.0,4340.0,0,3,7,choice,Before,Color,3,-3,1.0,3,3,2,2,2.0
50,70,w2457106,Animal,1.0,2785.0,0,2,8,choice,After,Category,2,-1,3.0,2,2,2,2,3.0
51,72,w88c84d1,Yellow,0.0,2999.0,0,1,1,choice,Before,Color,3,3,1.0,4,4,1,1,1.0
52,73,w88c84d1,Green,1.0,1509.0,0,2,1,choice,Before,Color,1,-2,-2.0,4,4,1,1,-2.0
53,74,w88c84d1,Blue,1.0,1185.0,1,3,1,choice,Before,Color,2,1,1.0,4,4,2,2,1.0
54,75,w88c84d1,Green,0.0,1568.0,1,1,2,choice,After,Color,3,-1,3.0,4,4,1,1,2.0
55,76,w88c84d1,Blue,1.0,1279.0,0,2,2,choice,After,Color,2,-1,-1.0,4,4,2,2,-1.0
56,77,w88c84d1,Red,0.0,1763.0,0,3,2,choice,After,Color,1,2,1.0,4,4,1,1,1.0
57,78,w88c84d1,Scene,1.0,4490.0,0,1,3,choice,Before,Category,3,-1,-1.0,4,4,2,2,1.0
58,80,w88c84d1,Animal,0.0,605.0,0,3,3,choice,Before,Category,2,3,3.0,4,4,2,2,3.0
59,81,w88c84d1,Object,1.0,2568.0,1,1,4,choice,After,Category,2,2,0.0,4,4,1,1,1.0
60,83,w88c84d1,Food,0.0,2732.0,1,3,4,choice,After,Category,3,-1,-1.0,4,4,3,3,-1.0
61,84,w88c84d1,Red,1.0,1783.0,1,1,5,choice,Before,Color,2,3,3.0,4,4,2,2,3.0
62,85,w88c84d1,Green,0.0,636.0,1,2,5,choice,Before,Color,3,-2,-2.0,4,4,1,1,-2.0
63,86,w88c84d1,Blue,0.0,687.0,1,3,5,choice,Before,Color,1,-1,-1.0,4,4,1,1,-1.0
64,87,w88c84d1,Food,,,0,1,6,choice,After,Category,3,1,-2.0,2,2,1,1,-2.0
65,88,w88c84d1,Animal,0.0,3360.0,1,2,6,choice,After,Category,1,-1,1.0,2,2,1,1,1.0
66,91,w88c84d1,Blue,0.0,1405.0,1,2,7,choice,Before,Color,3,-1,-1.0,2,2,1,1,2.0
67,92,w88c84d1,Green,1.0,1078.0,1,3,7,choice,Before,Color,1,2,2.0,2,2,1,1,2.0
68,94,w88c84d1,Food,1.0,2294.0,1,2,8,choice,After,Category,1,2,2.0,1,1,1,1,2.0
69,115,we24a9dd,Red,1.0,960.0,0,2,1,choice,After,Color,2,-4,-1.0,1,1,1,2,-1.0
70,117,we24a9dd,Food,1.0,4542.0,0,1,2,choice,Before,Category,2,-3,-1.0,4,4,1,1,-2.0
71,118,we24a9dd,Scene,1.0,1916.0,1,2,2,choice,Before,Category,3,3,0.0,4,4,2,2,0.0
72,119,we24a9dd,Object,0.0,5136.0,1,3,2,choice,Before,Category,1,-2,0.0,4,4,1,1,0.0
73,120,we24a9dd,Animal,1.0,4491.0,1,1,3,choice,After,Category,1,2,1.0,5,5,1,2,1.0
74,121,we24a9dd,Scene,1.0,3876.0,0,2,3,choice,After,Category,2,-2,-3.0,5,5,2,2,-3.0
75,122,we24a9dd,Food,1.0,1304.0,1,3,3,choice,After,Category,3,1,1.0,5,5,2,2,1.0
76,123,we24a9dd,Object,1.0,999.0,0,1,4,choice,Before,Category,1,-1,0.0,1,1,1,1,0.0
77,126,we24a9dd,Yellow,1.0,3440.0,0,1,5,choice,After,Color,1,-1,1.0,4,4,1,1,1.0
78,127,we24a9dd,Green,0.0,961.0,1,2,5,choice,After,Color,3,-1,-1.0,4,4,3,3,-1.0
79,129,we24a9dd,Blue,1.0,3445.0,0,1,6,choice,Before,Color,2,-1,0.0,4,4,1,1,-1.0
80,130,we24a9dd,Yellow,1.0,869.0,1,2,6,choice,Before,Color,1,1,1.0,4,4,1,2,1.0
81,131,we24a9dd,Red,0.0,830.0,1,3,6,choice,Before,Color,3,-2,-2.0,4,4,2,2,0.0
82,134,we24a9dd,Green,0.0,1752.0,1,3,7,choice,After,Color,3,-1,1.0,1,1,1,1,1.0
83,137,we24a9dd,Animal,1.0,722.0,1,3,8,choice,Before,Category,2,1,2.0,1,1,1,2,2.0
84,138,wf456a28,Animal,0.0,4467.0,1,1,1,choice,After,Category,2,-4,-3.0,4,4,1,1,-1.0
85,139,wf456a28,Object,1.0,3569.0,1,2,1,choice,After,Category,3,2,2.0,4,4,2,2,3.0
86,140,wf456a28,Food,1.0,3674.0,1,3,1,choice,After,Category,1,2,1.0,4,4,1,1,1.0
87,141,wf456a28,Blue,1.0,2575.0,0,1,2,choice,Before,Color,3,-2,2.0,6,6,3,3,2.0
88,142,wf456a28,Green,,,0,2,2,choice,Before,Color,1,1,1.0,6,6,1,1,1.0
89,143,wf456a28,Yellow,1.0,1918.0,1,3,2,choice,Before,Color,2,1,0.0,6,6,2,2,0.0
90,144,wf456a28,Blue,0.0,3162.0,1,1,3,choice,After,Color,1,-2,-2.0,4,4,1,1,-2.0
91,145,wf456a28,Green,0.0,6457.0,1,2,3,choice,After,Color,3,-1,-1.0,4,4,2,2,-2.0
92,146,wf456a28,Red,1.0,1212.0,1,3,3,choice,After,Color,2,2,3.0,4,4,1,1,2.0
93,147,wf456a28,Animal,0.0,4880.0,0,1,4,choice,Before,Category,3,1,-4.0,5,5,2,3,-3.0
94,148,wf456a28,Scene,0.0,1113.0,1,2,4,choice,Before,Category,2,-3,0.0,5,5,2,2,0.0
95,149,wf456a28,Object,1.0,3184.0,1,3,4,choice,Before,Category,1,1,1.0,5,5,1,1,1.0
96,150,wf456a28,Blue,0.0,3904.0,1,1,5,choice,After,Color,2,-1,-1.0,5,5,2,2,-1.0
97,151,wf456a28,Green,0.0,4733.0,1,2,5,choice,After,Color,3,-1,0.0,5,5,2,2,1.0
98,152,wf456a28,Yellow,1.0,1189.0,1,3,5,choice,After,Color,1,1,1.0,5,5,1,2,1.0
99,153,wf456a28,Scene,0.0,2229.0,1,1,6,choice,Before,Category,3,-2,-1.0,5,5,3,3,-1.0
100,155,wf456a28,Food,0.0,2151.0,0,3,6,choice,Before,Category,2,3,2.0,5,5,2,2,2.0
101,156,wf456a28,Scene,0.0,5039.0,0,1,7,choice,After,Category,1,1,1.0,3,3,1,3,1.0
102,157,wf456a28,Object,1.0,5160.0,0,2,7,choice,After,Category,3,-2,-2.0,3,3,1,1,1.0
103,158,wf456a28,Animal,0.0,2625.0,1,3,7,choice,After,Category,2,-1,-1.0,3,3,1,1,1.0
104,159,wf456a28,Red,1.0,843.0,1,1,8,choice,Before,Color,3,3,4.0,4,4,3,3,4.0
105,160,wf456a28,Yellow,1.0,3055.0,1,2,8,choice,Before,Color,2,1,1.0,4,4,1,2,2.0
106,162,w05ede5c,Food,1.0,3559.0,1,1,1,choice,Before,Category,1,1,-2.0,4,4,1,2,-2.0
107,163,w05ede5c,Object,1.0,1719.0,1,2,1,choice,Before,Category,3,2,1.0,4,4,1,1,2.0
108,164,w05ede5c,Animal,0.0,1611.0,1,3,1,choice,Before,Category,2,-2,2.0,4,4,2,2,2.0
109,165,w05ede5c,Food,1.0,3379.0,1,1,2,choice,After,Category,1,2,2.0,5,5,1,1,2.0
110,166,w05ede5c,Scene,0.0,1182.0,1,2,2,choice,After,Category,3,-2,-3.0,5,5,3,3,-3.0
111,167,w05ede5c,Object,1.0,1426.0,0,3,2,choice,After,Category,2,-1,-1.0,5,5,1,1,1.0
112,168,w05ede5c,Animal,0.0,2159.0,1,1,3,choice,Before,Category,2,-1,-1.0,4,4,2,2,-1.0
113,169,w05ede5c,Food,0.0,3890.0,0,2,3,choice,Before,Category,3,1,-3.0,4,4,1,1,-2.0
114,170,w05ede5c,Scene,1.0,2118.0,0,3,3,choice,Before,Category,1,-2,-2.0,4,4,1,2,-2.0
115,171,w05ede5c,Yellow,0.0,2558.0,1,1,4,choice,After,Color,3,-3,-3.0,5,5,3,3,-3.0
116,172,w05ede5c,Red,1.0,1791.0,1,2,4,choice,After,Color,1,1,-2.0,5,5,1,1,-2.0
117,173,w05ede5c,Blue,1.0,1298.0,0,3,4,choice,After,Color,2,-1,-1.0,5,5,1,1,1.0
118,174,w05ede5c,Yellow,1.0,2077.0,1,1,5,choice,Before,Color,2,3,2.0,4,4,1,1,1.0
119,176,w05ede5c,Green,0.0,634.0,1,3,5,choice,Before,Color,3,-3,0.0,4,4,3,3,0.0
120,177,w05ede5c,Yellow,1.0,3613.0,1,1,6,choice,After,Color,1,1,1.0,4,4,1,1,1.0
121,178,w05ede5c,Green,0.0,2096.0,1,2,6,choice,After,Color,3,-1,-2.0,4,4,2,3,0.0
122,179,w05ede5c,Red,1.0,848.0,1,3,6,choice,After,Color,2,1,3.0,4,4,1,1,2.0
123,180,w05ede5c,Object,1.0,3113.0,1,1,7,choice,Before,Category,2,3,3.0,4,4,2,2,3.0
124,181,w05ede5c,Animal,0.0,1708.0,1,2,7,choice,Before,Category,1,-2,-2.0,4,4,1,1,-2.0
125,182,w05ede5c,Scene,1.0,1696.0,0,3,7,choice,Before,Category,3,-1,-3.0,4,4,1,1,-2.0
126,183,w05ede5c,Red,1.0,4293.0,0,1,8,choice,After,Color,1,-1,2.0,4,4,1,1,2.0
127,184,w05ede5c,Green,1.0,2206.0,0,2,8,choice,After,Color,2,-1,-1.0,4,4,1,1,1.0
128,185,w05ede5c,Blue,0.0,1621.0,0,3,8,choice,After,Color,3,2,-6.0,4,4,2,3,-4.0
129,187,w612200e,Scene,0.0,409.0,1,2,2,choice,Before,Category,3,-3,1.0,1,1,1,1,-1.0
130,190,w612200e,Food,0.0,547.0,1,2,3,choice,After,Category,3,-2,-2.0,3,3,2,2,0.0
131,191,w612200e,Scene,1.0,364.0,0,3,3,choice,After,Category,1,-2,2.0,3,3,1,1,2.0
132,192,w612200e,Scene,1.0,2002.0,1,1,4,choice,Before,Category,2,1,-3.0,2,2,1,1,-1.0
133,194,w612200e,Animal,0.0,1538.0,1,3,4,choice,Before,Category,3,-1,0.0,2,2,1,1,-1.0
134,196,w612200e,Yellow,0.0,658.0,1,2,5,choice,After,Color,2,-2,-2.0,2,2,2,3,-2.0
135,198,w612200e,Green,1.0,1155.0,1,1,6,choice,Before,Color,3,3,0.0,3,3,1,1,-1.0
136,199,w612200e,Red,0.0,269.0,0,2,6,choice,Before,Color,2,1,4.0,3,3,1,2,2.0
137,200,w612200e,Yellow,0.0,623.0,1,3,6,choice,Before,Color,1,-1,-1.0,3,3,1,2,-1.0
138,203,w612200e,Scene,1.0,929.0,0,3,7,choice,After,Category,3,-1,-1.0,1,1,1,2,2.0
139,204,wb8feabb,Green,1.0,1953.0,1,1,1,choice,After,Color,1,2,2.0,5,5,1,1,2.0
140,205,wb8feabb,Red,0.0,2530.0,1,2,1,choice,After,Color,2,-3,-4.0,5,5,1,2,-2.0
141,206,wb8feabb,Yellow,1.0,2674.0,1,3,1,choice,After,Color,3,1,-3.0,5,5,3,3,-3.0
142,207,wb8feabb,Object,0.0,3687.0,0,1,2,choice,Before,Category,1,2,2.0,4,4,1,1,2.0
143,208,wb8feabb,Food,1.0,3018.0,0,2,2,choice,Before,Category,2,-3,3.0,4,4,1,1,2.0
144,209,wb8feabb,Scene,1.0,5141.0,1,3,2,choice,Before,Category,3,1,1.0,4,4,2,2,0.0
145,210,wb8feabb,Red,1.0,2096.0,1,1,3,choice,After,Color,2,3,3.0,3,3,2,2,3.0
146,211,wb8feabb,Blue,0.0,3928.0,1,2,3,choice,After,Color,1,-2,-2.0,3,3,1,2,-2.0
147,213,wb8feabb,Animal,1.0,1128.0,1,1,4,choice,Before,Category,3,2,2.0,5,5,3,3,2.0
148,215,wb8feabb,Scene,1.0,1097.0,1,3,4,choice,Before,Category,2,1,3.0,5,5,2,2,3.0
149,218,wb8feabb,Food,0.0,1364.0,0,3,5,choice,After,Category,1,2,-1.0,1,1,1,1,-1.0
150,219,wb8feabb,Red,0.0,1450.0,1,1,6,choice,Before,Color,3,-6,-2.0,4,4,2,2,0.0
151,220,wb8feabb,Blue,1.0,689.0,1,2,6,choice,Before,Color,2,2,3.0,4,4,2,2,3.0
152,222,wb8feabb,Blue,1.0,854.0,0,1,7,choice,After,Color,2,-4,3.0,2,2,1,1,2.0
153,223,wb8feabb,Green,0.0,1183.0,0,2,7,choice,After,Color,3,1,2.0,2,2,1,1,1.0
154,226,wb8feabb,Animal,1.0,1171.0,1,2,8,choice,Before,Category,2,3,0.0,1,1,1,1,2.0
155,228,w4c2a923,Animal,0.0,3142.0,1,1,1,choice,After,Category,2,-1,-4.0,5,5,1,1,-2.0
156,229,w4c2a923,Object,1.0,644.0,1,2,1,choice,After,Category,3,2,4.0,5,5,3,3,4.0
157,230,w4c2a923,Food,1.0,2160.0,0,3,1,choice,After,Category,1,-2,-1.0,5,5,1,1,-1.0
158,232,w4c2a923,Blue,0.0,2555.0,1,2,2,choice,Before,Color,2,-1,0.0,4,4,1,2,1.0
159,233,w4c2a923,Red,1.0,591.0,0,3,2,choice,Before,Color,3,-2,0.0,4,4,3,3,0.0
160,234,w4c2a923,Animal,0.0,1968.0,1,1,3,choice,After,Category,2,-1,3.0,2,2,1,1,2.0
161,236,w4c2a923,Food,1.0,984.0,1,3,3,choice,After,Category,3,2,-3.0,2,2,1,1,-2.0
162,239,w4c2a923,Yellow,1.0,395.0,0,3,4,choice,Before,Color,3,-1,2.0,1,1,1,2,2.0
163,240,w4c2a923,Food,0.0,3475.0,0,1,5,choice,After,Category,3,1,0.0,1,1,1,1,1.0
164,245,w4c2a923,Green,0.0,609.0,1,3,6,choice,Before,Color,3,-1,-4.0,1,1,1,1,-2.0
165,246,w4c2a923,Animal,0.0,1116.0,0,1,7,choice,After,Category,1,2,2.0,1,1,1,1,2.0
166,249,w1eadd53,Green,1.0,2772.0,1,1,1,choice,Before,Color,2,3,3.0,3,3,1,1,2.0
167,250,w1eadd53,Yellow,1.0,2437.0,0,2,1,choice,Before,Color,1,-2,1.0,3,3,1,1,1.0
168,251,w1eadd53,Blue,0.0,1004.0,1,3,1,choice,Before,Color,3,-1,2.0,3,3,1,1,-2.0
169,252,w1eadd53,Food,0.0,3283.0,1,1,2,choice,After,Category,1,-2,-2.0,5,5,1,1,-2.0
170,253,w1eadd53,Object,1.0,2209.0,0,2,2,choice,After,Category,2,-2,0.0,5,5,1,1,1.0
171,254,w1eadd53,Scene,1.0,1537.0,1,3,2,choice,After,Category,3,6,6.0,5,5,3,3,6.0
172,255,w1eadd53,Scene,0.0,2775.0,1,1,3,choice,Before,Category,1,-1,-1.0,5,5,1,1,-1.0
173,256,w1eadd53,Animal,0.0,1669.0,0,2,3,choice,Before,Category,2,1,0.0,5,5,1,1,2.0
174,257,w1eadd53,Food,1.0,920.0,1,3,3,choice,Before,Category,3,1,1.0,5,5,3,3,1.0
175,259,w1eadd53,Animal,1.0,3925.0,0,2,4,choice,After,Category,3,-1,0.0,4,4,2,2,-2.0
176,260,w1eadd53,Scene,1.0,856.0,1,3,4,choice,After,Category,2,4,4.0,4,4,2,2,4.0
177,261,w1eadd53,Food,1.0,2015.0,1,1,5,choice,Before,Category,3,2,0.0,3,3,2,2,2.0
178,262,w1eadd53,Scene,1.0,2759.0,1,2,5,choice,Before,Category,1,1,2.0,3,3,1,2,2.0
179,265,w1eadd53,Green,1.0,1295.0,1,2,6,choice,After,Color,3,5,5.0,5,5,3,3,5.0
180,266,w1eadd53,Red,0.0,5386.0,1,3,6,choice,After,Color,2,-2,-2.0,5,5,2,2,-2.0
181,267,w1eadd53,Red,1.0,2184.0,1,1,7,choice,Before,Color,3,1,5.0,3,3,2,3,3.0
182,269,w1eadd53,Yellow,1.0,2744.0,1,3,7,choice,Before,Color,2,1,3.0,3,3,1,1,1.0
183,270,w1eadd53,Blue,,,0,1,8,choice,After,Color,3,-2,2.0,3,3,1,2,2.0
184,271,w1eadd53,Green,1.0,3222.0,1,2,8,choice,After,Color,2,1,4.0,3,3,1,1,2.0
185,272,w1eadd53,Red,0.0,2797.0,0,3,8,choice,After,Color,1,2,2.0,3,3,1,1,2.0
186,273,w941cd9f,Animal,1.0,6867.0,0,1,1,choice,After,Category,3,-1,1.0,4,4,2,2,0.0
187,274,w941cd9f,Food,1.0,7215.0,1,2,1,choice,After,Category,1,1,1.0,4,4,1,2,1.0
188,275,w941cd9f,Scene,0.0,1447.0,0,3,1,choice,After,Category,2,1,1.0,4,4,1,2,2.0
189,276,w941cd9f,Green,1.0,1252.0,1,1,2,choice,Before,Color,3,2,2.0,3,3,1,2,2.0
190,277,w941cd9f,Blue,0.0,1223.0,1,2,2,choice,Before,Color,2,-3,-2.0,3,3,2,3,-2.0
191,279,w941cd9f,Yellow,1.0,2068.0,1,1,3,choice,After,Color,2,4,1.0,4,4,1,1,2.0
192,280,w941cd9f,Blue,0.0,2084.0,1,2,3,choice,After,Color,1,-2,-1.0,4,4,1,1,-1.0
193,281,w941cd9f,Red,1.0,2382.0,0,3,3,choice,After,Color,3,-1,1.0,4,4,2,3,3.0
194,282,w941cd9f,Object,1.0,1943.0,1,1,4,choice,Before,Category,2,4,3.0,5,5,2,2,3.0
195,283,w941cd9f,Food,0.0,872.0,1,2,4,choice,Before,Category,3,-1,-1.0,5,5,2,2,-3.0
196,284,w941cd9f,Animal,0.0,1206.0,1,3,4,choice,Before,Category,1,-1,-1.0,5,5,1,1,-1.0
197,286,w941cd9f,Animal,1.0,671.0,1,2,5,choice,After,Category,3,1,1.0,4,4,2,2,2.0
198,287,w941cd9f,Scene,0.0,1198.0,1,3,5,choice,After,Category,2,-3,-3.0,4,4,2,3,-3.0
199,288,w941cd9f,Scene,0.0,2227.0,1,1,6,choice,Before,Category,2,-1,-3.0,3,3,1,2,-2.0
200,289,w941cd9f,Food,1.0,3127.0,1,2,6,choice,Before,Category,3,1,0.0,3,3,2,2,1.0
201,291,w941cd9f,Blue,0.0,1250.0,1,1,7,choice,After,Color,3,-1,-4.0,4,4,2,2,-3.0
202,292,w941cd9f,Yellow,1.0,2429.0,1,2,7,choice,After,Color,2,4,4.0,4,4,1,1,2.0
203,293,w941cd9f,Green,0.0,1132.0,1,3,7,choice,After,Color,1,-2,-1.0,4,4,1,3,-1.0
204,295,w941cd9f,Blue,1.0,657.0,1,2,8,choice,Before,Color,3,2,3.0,2,2,2,2,1.0
205,297,w3fb3b5b,Object,1.0,2116.0,1,1,1,choice,Before,Category,3,1,5.0,3,3,2,2,3.0
206,299,w3fb3b5b,Animal,0.0,1012.0,1,3,1,choice,Before,Category,2,-2,-3.0,3,3,1,2,-1.0
207,300,w3fb3b5b,Green,1.0,3255.0,1,1,2,choice,After,Color,1,2,2.0,5,5,1,1,2.0
208,301,w3fb3b5b,Blue,1.0,2452.0,0,2,2,choice,After,Color,3,-1,2.0,5,5,2,2,4.0
209,302,w3fb3b5b,Yellow,0.0,2346.0,0,3,2,choice,After,Color,2,1,0.0,5,5,2,2,0.0
210,303,w3fb3b5b,Animal,1.0,3126.0,0,1,3,choice,Before,Category,1,-1,1.0,4,4,1,1,1.0
211,304,w3fb3b5b,Scene,0.0,1881.0,1,2,3,choice,Before,Category,2,-1,-4.0,4,4,2,2,-4.0
212,305,w3fb3b5b,Food,1.0,1442.0,1,3,3,choice,Before,Category,3,2,4.0,4,4,1,1,2.0
213,307,w3fb3b5b,Animal,1.0,1686.0,0,2,4,choice,After,Category,3,-3,2.0,2,2,1,1,2.0
214,308,w3fb3b5b,Scene,0.0,2432.0,0,3,4,choice,After,Category,2,4,-4.0,2,2,1,1,-2.0
215,310,w3fb3b5b,Object,0.0,4385.0,0,2,5,choice,Before,Category,3,3,1.0,3,3,2,2,3.0
216,311,w3fb3b5b,Animal,0.0,2937.0,0,3,5,choice,Before,Category,2,1,3.0,3,3,1,1,2.0
217,312,w3fb3b5b,Blue,1.0,3760.0,1,1,6,choice,After,Color,2,2,1.0,2,2,1,1,-1.0
218,314,w3fb3b5b,Red,0.0,2352.0,1,3,6,choice,After,Color,3,-4,0.0,2,2,1,2,1.0
219,315,w3fb3b5b,Red,1.0,3158.0,1,1,8,choice,After,Color,3,2,1.0,2,2,1,1,-2.0
220,316,w3fb3b5b,Yellow,0.0,1872.0,1,2,8,choice,After,Color,2,-2,3.0,2,2,1,1,1.0
221,318,w1ef67ab,Blue,0.0,1921.0,1,1,1,choice,After,Color,2,-1,0.0,6,6,2,2,0.0
222,319,w1ef67ab,Yellow,1.0,3214.0,1,2,1,choice,After,Color,3,2,1.0,6,6,2,2,3.0
223,320,w1ef67ab,Green,0.0,1346.0,1,3,1,choice,After,Color,1,-1,-1.0,6,6,1,1,-2.0
224,321,w1ef67ab,Scene,1.0,3178.0,1,1,2,choice,Before,Category,1,2,2.0,4,4,1,2,2.0
225,322,w1ef67ab,Food,0.0,1527.0,1,2,2,choice,Before,Category,3,-2,1.0,4,4,3,3,1.0
226,324,w1ef67ab,Scene,0.0,2307.0,1,1,3,choice,After,Category,3,-5,-4.0,6,6,3,3,-4.0
227,325,w1ef67ab,Animal,1.0,2122.0,1,2,3,choice,After,Category,2,3,2.0,6,6,2,2,2.0
228,326,w1ef67ab,Object,1.0,2514.0,1,3,3,choice,After,Category,1,1,2.0,6,6,1,1,2.0
229,327,w1ef67ab,Yellow,0.0,2338.0,1,1,4,choice,Before,Color,2,-1,-1.0,3,3,1,2,-2.0
230,329,w1ef67ab,Red,0.0,603.0,1,3,4,choice,Before,Color,3,-2,-1.0,3,3,2,3,-2.0
231,330,w1ef67ab,Green,1.0,1536.0,1,1,5,choice,After,Color,3,1,1.0,5,5,2,2,-1.0
232,331,w1ef67ab,Red,0.0,2959.0,0,2,5,choice,After,Color,2,1,0.0,5,5,2,2,0.0
233,332,w1ef67ab,Blue,1.0,2319.0,0,3,5,choice,After,Color,1,-1,1.0,5,5,1,1,1.0
234,333,w1ef67ab,Animal,1.0,2647.0,1,1,6,choice,Before,Category,1,1,2.0,5,5,1,2,2.0
235,334,w1ef67ab,Food,1.0,1571.0,0,2,6,choice,Before,Category,3,-2,1.0,5,5,2,2,0.0
236,335,w1ef67ab,Scene,0.0,1245.0,1,3,6,choice,Before,Category,2,-1,3.0,5,5,2,2,3.0
237,336,w1ef67ab,Yellow,1.0,1427.0,1,1,7,choice,After,Color,2,1,3.0,2,2,1,1,1.0
238,337,w1ef67ab,Blue,0.0,826.0,0,2,7,choice,After,Color,3,1,-3.0,2,2,1,1,-2.0
239,340,w1ef67ab,Object,1.0,1523.0,1,2,8,choice,Before,Category,3,4,4.0,3,3,2,3,3.0
240,341,w1ef67ab,Animal,0.0,921.0,1,3,8,choice,Before,Category,2,-3,-3.0,3,3,1,2,-2.0
241,343,wa1a03f2,Animal,1.0,4644.0,0,2,1,choice,Before,Category,3,-2,-5.0,2,2,1,2,-2.0
242,344,wa1a03f2,Food,1.0,4639.0,0,3,1,choice,Before,Category,1,-2,-2.0,2,2,1,2,-2.0
243,346,wa1a03f2,Blue,0.0,1544.0,1,2,2,choice,After,Color,2,-1,3.0,2,2,1,3,2.0
244,347,wa1a03f2,Red,0.0,3431.0,0,3,2,choice,After,Color,1,2,2.0,2,2,1,1,2.0
245,348,wa1a03f2,Scene,1.0,4928.0,0,1,3,choice,Before,Category,3,-2,2.0,2,2,1,1,1.0
246,350,wa1a03f2,Object,1.0,1201.0,1,3,3,choice,Before,Category,1,2,-1.0,2,2,1,1,-1.0
247,351,wa1a03f2,Animal,1.0,3132.0,0,1,4,choice,After,Category,1,-2,0.0,2,2,1,1,0.0
248,352,wa1a03f2,Food,1.0,2129.0,1,2,4,choice,After,Category,3,1,1.0,2,2,1,1,1.0
249,354,wa1a03f2,Red,0.0,2313.0,1,1,5,choice,Before,Color,2,-4,-2.0,3,3,1,1,-1.0
250,356,wa1a03f2,Green,0.0,1250.0,0,3,5,choice,Before,Color,3,2,0.0,3,3,2,2,-2.0
251,357,wa1a03f2,Red,0.0,3063.0,1,1,6,choice,After,Color,2,-3,-3.0,2,2,1,1,-2.0
252,358,wa1a03f2,Green,0.0,3792.0,0,2,6,choice,After,Color,3,5,1.0,2,2,1,1,0.0
253,360,wa1a03f2,Blue,1.0,4144.0,1,1,7,choice,Before,Color,3,4,3.0,3,3,2,2,1.0
254,362,wa1a03f2,Yellow,0.0,971.0,1,3,7,choice,Before,Color,2,-3,-3.0,3,3,1,1,-1.0
255,364,wa1a03f2,Object,1.0,3818.0,1,2,8,choice,After,Category,3,2,2.0,2,2,2,2,0.0
256,384,w59b3a22,Scene,,,0,1,1,choice,Before,Category,1,2,2.0,6,6,1,1,2.0
257,385,w59b3a22,Food,0.0,5247.0,0,2,1,choice,Before,Category,3,2,2.0,6,6,3,3,2.0
258,386,w59b3a22,Object,0.0,3396.0,1,3,1,choice,Before,Category,2,-2,-2.0,6,6,2,2,-2.0
259,387,w59b3a22,Blue,1.0,4876.0,1,1,2,choice,After,Color,1,2,2.0,6,6,1,1,2.0
260,388,w59b3a22,Green,0.0,5554.0,0,2,2,choice,After,Color,2,1,1.0,6,6,2,2,1.0
261,389,w59b3a22,Yellow,0.0,3330.0,1,3,2,choice,After,Color,3,-3,-3.0,6,6,3,3,-3.0
262,390,w59b3a22,Object,1.0,5994.0,0,1,3,choice,Before,Category,3,-2,1.0,6,6,3,3,1.0
263,391,w59b3a22,Scene,1.0,3675.0,1,2,3,choice,Before,Category,1,2,2.0,6,6,1,1,2.0
264,392,w59b3a22,Animal,0.0,6018.0,1,3,3,choice,Before,Category,2,-1,-1.0,6,6,2,2,-1.0
265,393,w59b3a22,Yellow,1.0,2037.0,1,1,4,choice,After,Color,2,2,4.0,5,5,2,2,4.0
266,394,w59b3a22,Blue,0.0,1022.0,1,2,4,choice,After,Color,3,-6,-5.0,5,5,2,2,-4.0
267,395,w59b3a22,Red,1.0,4171.0,1,3,4,choice,After,Color,1,2,2.0,5,5,1,1,2.0
268,396,w59b3a22,Scene,0.0,2928.0,1,1,5,choice,Before,Category,3,-4,2.0,6,6,3,3,2.0
269,397,w59b3a22,Animal,1.0,2795.0,1,2,5,choice,Before,Category,2,2,3.0,6,6,2,2,3.0
270,398,w59b3a22,Object,1.0,6221.0,1,3,5,choice,Before,Category,1,1,1.0,6,6,1,1,1.0
271,399,w59b3a22,Red,1.0,1916.0,0,1,6,choice,After,Color,3,-1,2.0,5,5,2,2,1.0
272,400,w59b3a22,Blue,0.0,3270.0,1,2,6,choice,After,Color,1,-1,-1.0,5,5,1,1,-1.0
273,401,w59b3a22,Yellow,1.0,4414.0,1,3,6,choice,After,Color,2,4,4.0,5,5,2,3,4.0
274,402,w59b3a22,Object,1.0,2960.0,0,1,7,choice,Before,Category,1,-1,-1.0,5,5,1,1,-1.0
275,403,w59b3a22,Scene,1.0,2761.0,1,2,7,choice,Before,Category,3,2,3.0,5,5,3,3,3.0
276,404,w59b3a22,Food,0.0,3729.0,0,3,7,choice,Before,Category,2,1,-3.0,5,5,1,1,-2.0
277,406,w59b3a22,Red,0.0,1260.0,1,2,8,choice,After,Color,3,-1,0.0,3,3,2,2,1.0
278,407,w59b3a22,Green,0.0,4835.0,1,3,8,choice,After,Color,1,-1,-1.0,3,3,1,1,-1.0
279,408,w82f4ec0,Food,1.0,3922.0,0,1,1,choice,Before,Category,1,-1,1.0,4,4,1,1,1.0
280,409,w82f4ec0,Object,1.0,2484.0,0,2,1,choice,Before,Category,3,-3,0.0,4,4,2,2,-1.0
281,410,w82f4ec0,Animal,0.0,4437.0,0,3,1,choice,Before,Category,2,3,0.0,4,4,1,1,-1.0
282,411,w82f4ec0,Food,1.0,2961.0,0,1,2,choice,After,Category,2,-2,4.0,2,2,2,2,4.0
283,414,w82f4ec0,Green,0.0,4162.0,0,1,3,choice,Before,Color,3,3,4.0,2,2,1,2,2.0
284,415,w82f4ec0,Blue,1.0,4914.0,1,2,3,choice,Before,Color,1,1,-1.0,2,2,1,3,-1.0
285,417,w82f4ec0,Scene,,,0,1,4,choice,After,Category,2,1,-4.0,2,2,2,2,-4.0
286,422,w82f4ec0,Green,0.0,3734.0,1,3,5,choice,Before,Color,3,-2,-1.0,1,1,1,1,-2.0
287,423,w82f4ec0,Object,0.0,2990.0,1,1,7,choice,Before,Category,3,-1,0.0,2,2,1,1,2.0
288,424,w82f4ec0,Animal,1.0,5897.0,1,2,7,choice,Before,Category,2,4,3.0,2,2,1,2,1.0
289,427,w82f4ec0,Red,0.0,1805.0,1,2,8,choice,After,Color,3,-2,3.0,1,1,1,1,2.0
290,429,w8efa7d8,Blue,0.0,1126.0,1,1,1,choice,After,Color,3,-1,-1.0,4,4,3,3,-1.0
291,430,w8efa7d8,Green,1.0,568.0,0,2,1,choice,After,Color,2,-1,-1.0,4,4,1,1,1.0
292,432,w8efa7d8,Green,0.0,1082.0,1,1,2,choice,Before,Color,1,-1,-1.0,6,6,1,1,-1.0
293,433,w8efa7d8,Red,0.0,543.0,1,2,2,choice,Before,Color,3,-2,-2.0,6,6,3,3,-2.0
294,434,w8efa7d8,Blue,1.0,287.0,1,3,2,choice,Before,Color,2,2,2.0,6,6,2,2,2.0
295,435,w8efa7d8,Yellow,0.0,1206.0,0,1,3,choice,After,Color,3,1,-2.0,2,2,2,2,-1.0
296,477,wcc4ec90,Blue,1.0,2200.0,1,1,1,choice,Before,Color,3,2,6.0,6,6,3,3,6.0
297,478,wcc4ec90,Red,1.0,4487.0,1,2,1,choice,Before,Color,1,2,2.0,6,6,1,1,2.0
298,479,wcc4ec90,Green,0.0,1277.0,1,3,1,choice,Before,Color,2,-3,-2.0,6,6,2,2,-2.0
299,480,wcc4ec90,Animal,1.0,6027.0,0,1,2,choice,After,Category,1,-1,2.0,6,6,1,1,2.0
300,481,wcc4ec90,Scene,1.0,5581.0,1,2,2,choice,After,Category,3,1,3.0,6,6,3,3,3.0
301,482,wcc4ec90,Food,0.0,3929.0,1,3,2,choice,After,Category,2,-1,-2.0,6,6,2,2,-2.0
302,483,wcc4ec90,Object,1.0,4219.0,0,1,3,choice,Before,Category,3,-2,0.0,3,3,2,2,1.0
303,485,wcc4ec90,Scene,0.0,3172.0,0,3,3,choice,Before,Category,1,2,2.0,3,3,1,3,2.0
304,486,wcc4ec90,Red,0.0,4427.0,0,1,4,choice,After,Color,1,1,2.0,6,6,1,1,2.0
305,487,wcc4ec90,Blue,1.0,2433.0,1,2,4,choice,After,Color,3,1,2.0,6,6,3,3,2.0
306,488,wcc4ec90,Yellow,0.0,2833.0,1,3,4,choice,After,Color,2,-3,-2.0,6,6,2,2,-2.0
307,489,wcc4ec90,Green,1.0,894.0,1,1,5,choice,Before,Color,3,2,2.0,4,4,2,2,1.0
308,490,wcc4ec90,Yellow,1.0,492.0,1,2,5,choice,Before,Color,1,2,2.0,4,4,1,2,2.0
309,491,wcc4ec90,Blue,0.0,1319.0,1,3,5,choice,Before,Color,2,-4,0.0,4,4,1,2,-1.0
310,492,wcc4ec90,Scene,1.0,4223.0,1,1,6,choice,After,Category,1,1,1.0,6,6,1,1,1.0
311,493,wcc4ec90,Food,0.0,6422.0,1,2,6,choice,After,Category,3,-1,-1.0,6,6,3,3,-1.0
312,494,wcc4ec90,Animal,0.0,4290.0,0,3,6,choice,After,Category,2,1,1.0,6,6,2,2,1.0
313,495,wcc4ec90,Green,0.0,2903.0,1,1,7,choice,Before,Color,2,-3,-3.0,6,6,2,2,-3.0
314,496,wcc4ec90,Yellow,1.0,738.0,1,2,7,choice,Before,Color,3,2,2.0,6,6,3,3,2.0
315,497,wcc4ec90,Red,1.0,1420.0,1,3,7,choice,Before,Color,1,1,1.0,6,6,1,1,1.0
316,498,wcc4ec90,Animal,0.0,1726.0,1,1,8,choice,After,Category,3,-2,-4.0,5,5,2,2,-3.0
317,499,wcc4ec90,Object,1.0,1056.0,1,2,8,choice,After,Category,2,1,3.0,5,5,2,2,3.0
318,500,wcc4ec90,Food,1.0,785.0,1,3,8,choice,After,Category,1,1,2.0,5,5,1,2,2.0
319,501,w8de3f64,Blue,0.0,3611.0,1,1,1,choice,After,Color,3,-1,-1.0,6,6,3,3,-1.0
320,502,w8de3f64,Yellow,1.0,5401.0,1,2,1,choice,After,Color,2,1,1.0,6,6,2,2,1.0
321,503,w8de3f64,Red,1.0,5806.0,1,3,1,choice,After,Color,1,1,1.0,6,6,1,1,1.0
322,504,w8de3f64,Object,1.0,6372.0,1,1,2,choice,Before,Category,1,1,2.0,5,5,1,1,2.0
323,505,w8de3f64,Scene,0.0,2637.0,0,2,2,choice,Before,Category,2,1,1.0,5,5,2,2,1.0
324,506,w8de3f64,Food,1.0,4587.0,0,3,2,choice,Before,Category,3,-1,-1.0,5,5,2,2,0.0
325,508,w8de3f64,Animal,1.0,859.0,0,2,3,choice,After,Category,3,-1,2.0,4,4,2,2,1.0
326,509,w8de3f64,Object,1.0,925.0,1,3,3,choice,After,Category,2,3,2.0,4,4,2,2,2.0
327,510,w8de3f64,Blue,1.0,2058.0,1,1,4,choice,Before,Color,1,1,1.0,6,6,1,1,1.0
328,511,w8de3f64,Red,0.0,1555.0,1,2,4,choice,Before,Color,3,-1,-2.0,6,6,3,3,-2.0
329,512,w8de3f64,Green,1.0,741.0,1,3,4,choice,Before,Color,2,1,1.0,6,6,2,2,1.0
330,513,w8de3f64,Red,0.0,2866.0,1,1,5,choice,After,Color,2,-3,-3.0,5,5,2,2,-3.0
331,514,w8de3f64,Yellow,1.0,2814.0,1,2,5,choice,After,Color,1,1,1.0,5,5,1,1,1.0
332,515,w8de3f64,Green,,,0,3,5,choice,After,Color,3,1,1.0,5,5,2,2,0.0
333,516,w8de3f64,Animal,0.0,1739.0,1,1,6,choice,Before,Category,2,-1,0.0,2,2,1,1,1.0
334,517,w8de3f64,Scene,1.0,2974.0,1,2,6,choice,Before,Category,1,2,2.0,2,2,1,2,2.0
335,519,w8de3f64,Green,1.0,1876.0,1,1,7,choice,After,Color,3,5,6.0,4,4,2,2,4.0
336,521,w8de3f64,Blue,0.0,733.0,1,3,7,choice,After,Color,2,-4,-4.0,4,4,2,2,-4.0
337,523,w8de3f64,Food,0.0,746.0,0,2,8,choice,Before,Category,3,1,-2.0,2,2,2,2,-3.0
338,525,we83fa8f,Object,0.0,2230.0,0,1,1,choice,Before,Category,3,1,-2.0,4,4,2,2,-3.0
339,526,we83fa8f,Animal,0.0,1783.0,1,2,1,choice,Before,Category,2,-3,-1.0,4,4,1,2,1.0
340,527,we83fa8f,Food,1.0,1222.0,1,3,1,choice,Before,Category,1,1,1.0,4,4,1,1,1.0
341,529,we83fa8f,Scene,1.0,5849.0,0,2,2,choice,After,Category,3,-1,1.0,5,5,3,3,1.0
342,530,we83fa8f,Food,0.0,5761.0,1,3,2,choice,After,Category,2,-1,-1.0,5,5,2,2,-1.0
343,532,we83fa8f,Food,0.0,4998.0,0,2,3,choice,Before,Category,3,2,2.0,3,3,2,2,1.0
344,533,we83fa8f,Scene,1.0,2469.0,1,3,3,choice,Before,Category,2,1,1.0,3,3,1,1,2.0
345,535,we83fa8f,Red,1.0,4222.0,1,2,4,choice,After,Color,1,2,1.0,1,1,1,2,1.0
346,539,we83fa8f,Green,1.0,1873.0,1,3,5,choice,Before,Color,3,1,1.0,2,2,2,3,3.0
347,540,we83fa8f,Food,0.0,3347.0,1,1,6,choice,After,Category,2,-2,-3.0,4,4,2,2,-3.0
348,542,we83fa8f,Scene,1.0,2065.0,1,3,6,choice,After,Category,3,1,2.0,4,4,2,2,1.0
349,543,we83fa8f,Green,0.0,1731.0,1,1,7,choice,Before,Color,3,-2,4.0,5,5,3,3,4.0
350,544,we83fa8f,Red,0.0,1289.0,1,2,7,choice,Before,Color,1,-2,-2.0,5,5,1,1,-2.0
351,545,we83fa8f,Blue,1.0,1437.0,1,3,7,choice,Before,Color,2,4,4.0,5,5,1,2,2.0
352,546,we83fa8f,Red,,,0,1,8,choice,After,Color,3,1,1.0,4,4,1,1,-2.0
353,547,we83fa8f,Yellow,1.0,2703.0,1,2,8,choice,After,Color,2,1,4.0,4,4,1,1,4.0
354,548,we83fa8f,Green,0.0,3254.0,1,3,8,choice,After,Color,1,-2,-2.0,4,4,1,3,-2.0
355,549,w5092120,Blue,0.0,3091.0,1,1,1,choice,Before,Color,2,-1,-2.0,5,5,1,2,-2.0
356,550,w5092120,Yellow,1.0,4123.0,1,2,1,choice,Before,Color,3,1,0.0,5,5,3,3,0.0
357,551,w5092120,Green,1.0,2885.0,0,3,1,choice,Before,Color,1,-2,-2.0,5,5,1,1,-2.0
358,552,w5092120,Blue,,,0,1,2,choice,After,Color,2,3,-1.0,4,4,1,1,0.0
359,553,w5092120,Green,0.0,3007.0,1,2,2,choice,After,Color,3,-5,-3.0,4,4,2,2,-1.0
360,554,w5092120,Red,1.0,702.0,1,3,2,choice,After,Color,1,1,0.0,4,4,1,1,0.0
361,555,w5092120,Green,0.0,2163.0,1,1,4,choice,After,Color,1,-1,-1.0,4,4,1,1,-1.0
362,556,w5092120,Red,1.0,716.0,1,2,4,choice,After,Color,3,2,3.0,4,4,2,2,1.0
363,557,w5092120,Yellow,1.0,637.0,1,3,4,choice,After,Color,2,1,3.0,4,4,1,2,1.0
364,558,w5092120,Object,,,0,1,8,choice,After,Category,3,1,1.0,3,3,2,2,0.0
365,559,w5092120,Food,1.0,1893.0,1,2,8,choice,After,Category,1,2,-1.0,3,3,1,2,-1.0
366,561,w0a25e9c,Food,1.0,4590.0,0,1,1,choice,Before,Category,1,-2,-2.0,5,5,1,2,-2.0
367,562,w0a25e9c,Animal,1.0,7232.0,0,2,1,choice,Before,Category,3,-2,-2.0,5,5,2,2,0.0
368,563,w0a25e9c,Scene,1.0,1048.0,1,3,1,choice,Before,Category,2,4,4.0,5,5,2,2,4.0
369,564,w0a25e9c,Blue,1.0,4560.0,0,1,2,choice,After,Color,2,-2,1.0,3,3,1,1,2.0
370,566,w0a25e9c,Green,1.0,4530.0,1,3,2,choice,After,Color,3,4,5.0,3,3,2,2,4.0
371,567,w0a25e9c,Red,1.0,1673.0,1,1,3,choice,Before,Color,3,3,6.0,3,3,2,3,4.0
372,568,w0a25e9c,Yellow,0.0,4686.0,0,2,3,choice,Before,Color,2,1,-2.0,3,3,1,1,-1.0
373,570,w0a25e9c,Animal,0.0,3418.0,0,1,4,choice,After,Category,1,1,2.0,4,4,1,1,2.0
374,571,w0a25e9c,Object,1.0,2825.0,1,2,4,choice,After,Category,2,3,3.0,4,4,1,1,2.0
375,572,w0a25e9c,Food,1.0,3567.0,0,3,4,choice,After,Category,3,-4,0.0,4,4,2,2,-2.0
376,573,w0a25e9c,Green,1.0,4790.0,0,1,5,choice,Before,Color,3,-3,1.0,4,4,2,2,0.0
377,574,w0a25e9c,Red,1.0,2348.0,1,2,5,choice,Before,Color,2,1,4.0,4,4,2,2,4.0
378,576,w0a25e9c,Scene,1.0,2082.0,1,1,6,choice,After,Category,2,3,4.0,6,6,2,2,4.0
379,577,w0a25e9c,Animal,1.0,3475.0,1,2,6,choice,After,Category,1,2,1.0,6,6,1,1,1.0
380,578,w0a25e9c,Food,0.0,1935.0,1,3,6,choice,After,Category,3,-5,-5.0,6,6,3,3,-5.0
381,579,w0a25e9c,Yellow,1.0,2550.0,1,1,7,choice,Before,Color,2,3,4.0,4,4,2,2,4.0
382,580,w0a25e9c,Blue,0.0,2916.0,1,2,7,choice,Before,Color,3,-2,-2.0,4,4,2,2,-1.0
383,582,w0a25e9c,Object,0.0,3736.0,1,1,8,choice,After,Category,3,-2,2.0,4,4,2,2,3.0
384,583,w0a25e9c,Food,1.0,2802.0,1,2,8,choice,After,Category,1,1,1.0,4,4,1,1,1.0
385,584,w0a25e9c,Animal,1.0,1014.0,0,3,8,choice,After,Category,2,-1,1.0,4,4,1,1,2.0
386,585,wbb74717,Animal,0.0,5490.0,1,1,1,choice,Before,Category,3,-1,-1.0,5,5,2,2,-2.0
387,586,wbb74717,Scene,1.0,4779.0,1,2,1,choice,Before,Category,2,2,2.0,5,5,2,2,2.0
388,587,wbb74717,Food,0.0,3240.0,1,3,1,choice,Before,Category,1,-1,-1.0,5,5,1,1,-1.0
389,588,wbb74717,Red,0.0,4100.0,1,1,2,choice,After,Color,1,-2,-1.0,5,5,1,1,-1.0
390,589,wbb74717,Green,1.0,4093.0,1,2,2,choice,After,Color,3,2,2.0,5,5,3,3,2.0
391,590,wbb74717,Blue,0.0,3957.0,0,3,2,choice,After,Color,2,1,0.0,5,5,1,1,-1.0
392,591,wbb74717,Yellow,1.0,1074.0,1,1,3,choice,Before,Color,2,4,3.0,5,5,2,2,3.0
393,592,wbb74717,Blue,0.0,1688.0,1,2,3,choice,Before,Color,1,-1,-1.0,5,5,1,2,-1.0
394,593,wbb74717,Red,1.0,426.0,0,3,3,choice,Before,Color,3,-1,0.0,5,5,2,2,1.0
395,594,wbb74717,Green,1.0,3600.0,0,1,4,choice,After,Color,1,-1,-1.0,5,5,1,1,-1.0
396,595,wbb74717,Red,1.0,4942.0,1,2,4,choice,After,Color,3,1,-1.0,5,5,3,3,-1.0
397,596,wbb74717,Yellow,1.0,1707.0,1,3,4,choice,After,Color,2,1,3.0,5,5,1,1,2.0
398,597,wbb74717,Scene,0.0,1814.0,1,1,5,choice,Before,Category,2,-2,-2.0,3,3,2,2,-2.0
399,599,wbb74717,Animal,1.0,2540.0,1,3,5,choice,Before,Category,3,2,-1.0,3,3,1,1,-1.0
400,600,wbb74717,Food,1.0,1890.0,1,1,6,choice,After,Category,3,1,1.0,2,2,1,1,-1.0
401,601,wbb74717,Scene,1.0,1950.0,0,2,6,choice,After,Category,2,-1,0.0,2,2,1,1,-1.0
402,603,wbb74717,Scene,0.0,2355.0,0,1,7,choice,Before,Category,2,4,0.0,2,2,2,2,0.0
403,606,wbb74717,Blue,1.0,2072.0,1,1,8,choice,After,Color,3,2,1.0,2,2,1,2,-1.0
404,607,wbb74717,Red,0.0,614.0,0,2,8,choice,After,Color,1,1,-1.0,2,2,1,2,-1.0
405,609,w0c031fe,Yellow,1.0,2100.0,1,1,1,choice,After,Color,1,2,2.0,3,3,1,1,2.0
406,610,w0c031fe,Blue,0.0,2449.0,0,2,1,choice,After,Color,3,1,1.0,3,3,2,2,-1.0
407,612,w0c031fe,Object,1.0,2543.0,1,1,2,choice,Before,Category,2,4,0.0,3,3,1,1,1.0
408,613,w0c031fe,Food,0.0,1476.0,1,2,2,choice,Before,Category,1,-2,-2.0,3,3,1,1,-2.0
409,614,w0c031fe,Scene,1.0,889.0,0,3,2,choice,Before,Category,3,-1,1.0,3,3,1,1,1.0
410,615,w0c031fe,Yellow,1.0,2608.0,0,1,3,choice,After,Color,3,-1,2.0,4,4,2,2,1.0
411,616,w0c031fe,Red,1.0,3167.0,1,2,3,choice,After,Color,2,1,1.0,4,4,2,2,1.0
412,618,w0c031fe,Blue,1.0,2289.0,1,1,4,choice,Before,Color,2,1,-3.0,3,3,1,1,-2.0
413,620,w0c031fe,Yellow,1.0,3705.0,1,3,4,choice,Before,Color,3,2,4.0,3,3,2,2,2.0
414,621,w0c031fe,Scene,0.0,3204.0,1,1,5,choice,After,Category,1,-1,-1.0,3,3,1,2,-1.0
415,622,w0c031fe,Food,1.0,871.0,1,2,5,choice,After,Category,3,2,1.0,3,3,2,2,-1.0
416,624,w0c031fe,Object,0.0,3104.0,1,1,6,choice,Before,Category,1,-2,-1.0,3,3,1,1,-1.0
417,625,w0c031fe,Scene,0.0,748.0,1,2,6,choice,Before,Category,2,-1,-2.0,3,3,1,2,-1.0
418,626,w0c031fe,Food,1.0,421.0,1,3,6,choice,Before,Category,3,1,1.0,3,3,1,2,2.0
419,627,w0c031fe,Yellow,1.0,2995.0,0,1,7,choice,After,Color,2,-3,1.0,4,4,2,2,1.0
420,628,w0c031fe,Red,0.0,1434.0,0,2,7,choice,After,Color,3,4,-1.0,4,4,2,2,-2.0
421,630,w0c031fe,Object,1.0,1497.0,1,1,8,choice,Before,Category,3,2,0.0,4,4,2,2,1.0
422,631,w0c031fe,Food,1.0,806.0,0,2,8,choice,Before,Category,1,-2,-1.0,4,4,1,1,-1.0
423,632,w0c031fe,Animal,0.0,374.0,0,3,8,choice,Before,Category,2,1,-4.0,4,4,1,1,-2.0
424,633,w4ccf510,Object,0.0,7024.0,1,1,1,choice,Before,Category,2,-1,-4.0,4,4,2,2,-4.0
425,634,w4ccf510,Scene,0.0,5579.0,1,2,1,choice,Before,Category,1,-2,-1.0,4,4,1,1,-1.0
426,635,w4ccf510,Food,1.0,1123.0,1,3,1,choice,Before,Category,3,1,3.0,4,4,1,2,1.0
427,636,w4ccf510,Yellow,0.0,3172.0,0,1,2,choice,After,Color,3,2,-2.0,6,6,3,3,-2.0
428,637,w4ccf510,Blue,0.0,6381.0,0,2,2,choice,After,Color,1,1,1.0,6,6,1,1,1.0
429,638,w4ccf510,Green,1.0,2777.0,0,3,2,choice,After,Color,2,-2,1.0,6,6,2,2,1.0
430,639,w4ccf510,Red,0.0,3763.0,1,1,3,choice,Before,Color,3,-2,-2.0,3,3,1,1,2.0
431,640,w4ccf510,Green,1.0,5616.0,1,2,3,choice,Before,Color,2,2,0.0,3,3,1,1,-1.0
432,641,w4ccf510,Yellow,0.0,557.0,1,3,3,choice,Before,Color,1,-2,2.0,3,3,1,2,2.0
433,643,w4ccf510,Blue,1.0,5289.0,0,2,4,choice,After,Color,3,-2,-5.0,3,3,2,2,-4.0
434,644,w4ccf510,Yellow,1.0,3796.0,1,3,4,choice,After,Color,2,1,0.0,3,3,1,2,1.0
435,645,w4ccf510,Blue,0.0,1471.0,1,1,5,choice,Before,Color,2,-3,-4.0,3,3,1,2,-2.0
436,647,w4ccf510,Green,1.0,1534.0,1,3,5,choice,Before,Color,3,6,3.0,3,3,2,2,1.0
437,648,w4ccf510,Scene,0.0,5754.0,0,1,6,choice,After,Category,1,1,2.0,5,5,1,1,2.0
438,649,w4ccf510,Food,0.0,5050.0,1,2,6,choice,After,Category,3,-2,-4.0,5,5,3,3,-4.0
439,650,w4ccf510,Animal,0.0,465.0,0,3,6,choice,After,Category,2,1,0.0,5,5,1,2,1.0
440,651,w4ccf510,Food,0.0,4153.0,0,1,7,choice,Before,Category,2,1,0.0,5,5,1,1,-1.0
441,652,w4ccf510,Object,1.0,2159.0,1,2,7,choice,Before,Category,1,1,-1.0,5,5,1,1,-1.0
442,653,w4ccf510,Scene,0.0,1199.0,1,3,7,choice,Before,Category,3,-1,-2.0,5,5,3,3,-2.0
443,654,w4ccf510,Animal,1.0,4858.0,0,1,8,choice,After,Category,3,-3,-2.0,3,3,1,2,-2.0
444,655,w4ccf510,Object,1.0,3463.0,1,2,8,choice,After,Category,2,3,-3.0,3,3,1,1,-1.0
445,656,w4ccf510,Food,0.0,2349.0,1,3,8,choice,After,Category,1,-1,1.0,3,3,1,2,1.0
446,657,wb5c4def,Scene,1.0,2732.0,1,1,1,choice,After,Category,2,4,3.0,1,1,1,2,2.0
447,660,wb5c4def,Red,1.0,1752.0,1,1,2,choice,Before,Color,1,2,2.0,6,6,1,1,2.0
448,661,wb5c4def,Blue,0.0,3048.0,1,2,2,choice,Before,Color,2,-4,-4.0,6,6,2,2,-4.0
449,662,wb5c4def,Green,1.0,1709.0,1,3,2,choice,Before,Color,3,1,1.0,6,6,3,3,1.0
450,663,wb5c4def,Blue,0.0,1916.0,0,1,3,choice,After,Color,1,2,2.0,6,6,1,1,2.0
451,664,wb5c4def,Red,0.0,2686.0,1,2,3,choice,After,Color,3,-1,-1.0,6,6,3,3,-1.0
452,665,wb5c4def,Yellow,0.0,3487.0,0,3,3,choice,After,Color,2,1,1.0,6,6,2,2,1.0
453,666,wb5c4def,Animal,1.0,4766.0,1,1,4,choice,Before,Category,1,1,-2.0,5,5,1,2,-2.0
454,667,wb5c4def,Object,0.0,6062.0,0,2,4,choice,Before,Category,2,3,2.0,5,5,2,2,2.0
455,668,wb5c4def,Food,1.0,5641.0,0,3,4,choice,Before,Category,3,-5,-5.0,5,5,2,2,-4.0
456,669,wb5c4def,Green,1.0,2431.0,1,1,5,choice,After,Color,3,1,2.0,4,4,2,3,1.0
457,671,wb5c4def,Red,0.0,4596.0,1,3,5,choice,After,Color,2,-1,1.0,4,4,2,3,1.0
458,672,wb5c4def,Red,0.0,2885.0,1,1,6,choice,Before,Color,2,-1,-4.0,4,4,1,2,-2.0
459,673,wb5c4def,Green,1.0,667.0,1,2,6,choice,Before,Color,3,2,5.0,4,4,2,2,3.0
460,674,wb5c4def,Yellow,0.0,1222.0,1,3,6,choice,Before,Color,1,-1,-2.0,4,4,1,1,-2.0
461,675,wb5c4def,Object,,,0,1,7,choice,After,Category,3,-1,-3.0,5,5,3,3,-3.0
462,676,wb5c4def,Food,1.0,2760.0,0,2,7,choice,After,Category,1,-2,-2.0,5,5,1,1,-2.0
463,677,wb5c4def,Scene,1.0,2487.0,1,3,7,choice,After,Category,2,2,4.0,5,5,1,2,2.0
464,678,wb5c4def,Animal,0.0,1284.0,1,1,8,choice,Before,Category,2,-3,-3.0,4,4,1,2,-1.0
465,679,wb5c4def,Object,1.0,909.0,1,2,8,choice,Before,Category,3,5,5.0,4,4,2,2,4.0
466,680,wb5c4def,Food,0.0,1184.0,1,3,8,choice,Before,Category,1,-2,-2.0,4,4,1,2,-2.0
467,705,wdad9375,Green,,,0,1,1,choice,After,Color,1,-2,-2.0,4,4,1,1,-2.0
468,706,wdad9375,Blue,1.0,4726.0,1,2,1,choice,After,Color,2,3,3.0,4,4,1,2,2.0
469,707,wdad9375,Yellow,1.0,4363.0,0,3,1,choice,After,Color,3,-3,0.0,4,4,2,2,-1.0
470,708,wdad9375,Blue,,,0,1,2,choice,Before,Color,2,-4,-3.0,6,6,2,2,-3.0
471,709,wdad9375,Red,1.0,39.0,1,2,2,choice,Before,Color,1,2,2.0,6,6,1,1,2.0
472,710,wdad9375,Green,1.0,3983.0,1,3,2,choice,Before,Color,3,1,1.0,6,6,3,3,1.0
473,711,wdad9375,Animal,1.0,5809.0,1,1,3,choice,After,Category,2,4,-1.0,3,3,1,2,1.0
474,712,wdad9375,Scene,0.0,2400.0,1,2,3,choice,After,Category,3,-3,-2.0,3,3,2,2,-3.0
475,714,wdad9375,Object,0.0,3174.0,1,1,4,choice,Before,Category,2,-4,-4.0,5,5,2,2,-4.0
476,715,wdad9375,Animal,1.0,1585.0,1,2,4,choice,Before,Category,1,2,1.0,5,5,1,2,1.0
477,716,wdad9375,Food,1.0,1726.0,1,3,4,choice,Before,Category,3,2,3.0,5,5,2,2,4.0
478,717,wdad9375,Scene,,,0,1,5,choice,After,Category,2,1,1.0,6,6,2,2,1.0
479,718,wdad9375,Object,1.0,341.0,1,2,5,choice,After,Category,1,2,-1.0,6,6,1,1,-1.0
480,719,wdad9375,Animal,0.0,3629.0,1,3,5,choice,After,Category,3,-1,2.0,6,6,3,3,2.0
481,720,wdad9375,Green,,,0,1,6,choice,Before,Color,3,-1,-1.0,6,6,3,3,-1.0
482,721,wdad9375,Yellow,1.0,5444.0,1,2,6,choice,Before,Color,1,1,1.0,6,6,1,1,1.0
483,722,wdad9375,Red,1.0,3967.0,1,3,6,choice,Before,Color,2,1,1.0,6,6,2,2,1.0
484,723,wdad9375,Object,1.0,4031.0,0,1,7,choice,After,Category,3,-1,0.0,5,5,2,2,1.0
485,724,wdad9375,Food,0.0,2046.0,0,2,7,choice,After,Category,1,2,2.0,5,5,1,2,2.0
486,725,wdad9375,Scene,1.0,937.0,1,3,7,choice,After,Category,2,1,1.0,5,5,2,2,1.0
487,726,wdad9375,Blue,1.0,6744.0,1,1,8,choice,Before,Color,3,3,1.0,3,3,2,2,-1.0
488,728,wdad9375,Yellow,,,0,3,8,choice,Before,Color,2,-2,-3.0,3,3,1,2,-1.0
489,729,we55dec7,Blue,1.0,1990.0,1,1,1,choice,After,Color,2,1,3.0,3,3,1,1,2.0
490,730,we55dec7,Yellow,1.0,790.0,1,2,1,choice,After,Color,3,2,-6.0,3,3,1,1,-2.0
491,731,we55dec7,Green,1.0,3580.0,0,3,1,choice,After,Color,1,-1,-1.0,3,3,1,1,-1.0
492,732,we55dec7,Blue,1.0,864.0,0,1,2,choice,Before,Color,2,-1,2.0,3,3,1,1,1.0
493,733,we55dec7,Green,0.0,4114.0,0,2,2,choice,Before,Color,3,1,3.0,3,3,2,2,4.0
494,736,we55dec7,Scene,1.0,963.0,1,2,3,choice,After,Category,3,3,5.0,4,4,3,4,5.0
495,737,we55dec7,Animal,1.0,2640.0,1,3,3,choice,After,Category,2,1,-1.0,4,4,1,1,1.0
496,738,we55dec7,Food,1.0,2184.0,1,1,4,choice,Before,Category,3,3,3.0,4,4,3,3,3.0
497,739,we55dec7,Object,0.0,854.0,1,2,4,choice,Before,Category,2,-1,-2.0,4,4,1,1,-1.0
498,742,we55dec7,Red,0.0,2922.0,0,2,5,choice,After,Color,2,1,0.0,2,2,2,3,0.0
499,744,we55dec7,Scene,0.0,4116.0,1,1,6,choice,Before,Category,2,-1,0.0,3,3,2,2,0.0
500,745,we55dec7,Animal,1.0,861.0,0,2,6,choice,Before,Category,1,-1,2.0,3,3,1,2,2.0
501,749,we55dec7,Object,1.0,2212.0,1,3,7,choice,After,Category,3,1,-2.0,1,1,1,1,1.0
502,751,we55dec7,Blue,0.0,1326.0,0,2,8,choice,Before,Color,3,1,2.0,2,2,2,2,1.0
503,753,w0198d08,Green,1.0,2926.0,1,1,1,choice,Before,Color,1,2,1.0,5,5,1,1,1.0
504,754,w0198d08,Yellow,1.0,2999.0,1,2,1,choice,Before,Color,3,1,5.0,5,5,2,2,4.0
505,755,w0198d08,Red,0.0,907.0,1,3,1,choice,Before,Color,2,-3,-2.0,5,5,2,3,-2.0
506,756,w0198d08,Object,,,0,1,2,choice,After,Category,1,-1,-1.0,6,6,1,1,-1.0
507,757,w0198d08,Scene,0.0,3405.0,1,2,2,choice,After,Category,3,-1,-1.0,6,6,3,3,-1.0
508,758,w0198d08,Food,1.0,1223.0,1,3,2,choice,After,Category,2,3,3.0,6,6,2,2,3.0
509,759,w0198d08,Animal,0.0,3406.0,0,1,3,choice,Before,Category,1,2,-1.0,5,5,1,1,-1.0
510,760,w0198d08,Scene,0.0,1253.0,0,2,3,choice,Before,Category,2,1,1.0,5,5,2,2,1.0
511,761,w0198d08,Food,1.0,583.0,0,3,3,choice,Before,Category,3,-1,0.0,5,5,2,3,-2.0
512,762,w0198d08,Blue,1.0,2906.0,1,1,4,choice,After,Color,2,3,0.0,5,5,1,1,1.0
513,763,w0198d08,Red,0.0,2264.0,1,2,4,choice,After,Color,1,-2,-2.0,5,5,1,2,-2.0
514,764,w0198d08,Yellow,1.0,1137.0,0,3,4,choice,After,Color,3,-2,-2.0,5,5,3,3,-2.0
515,765,w0198d08,Blue,1.0,3498.0,1,1,5,choice,Before,Color,2,1,0.0,5,5,1,2,1.0
516,766,w0198d08,Yellow,1.0,3713.0,1,2,5,choice,Before,Color,1,1,1.0,5,5,1,1,1.0
517,767,w0198d08,Green,0.0,1412.0,1,3,5,choice,Before,Color,3,-2,-3.0,5,5,3,3,-3.0
518,768,w0198d08,Scene,0.0,1858.0,1,1,6,choice,After,Category,3,-2,-3.0,5,5,3,3,-3.0
519,769,w0198d08,Food,1.0,1762.0,1,2,6,choice,After,Category,2,1,1.0,5,5,2,2,1.0
520,771,w0198d08,Animal,1.0,2417.0,0,1,7,choice,Before,Category,2,-2,-3.0,2,2,1,1,-2.0
521,773,w0198d08,Object,1.0,878.0,1,3,7,choice,Before,Category,3,2,2.0,2,2,1,1,1.0
522,774,w0198d08,Green,1.0,2645.0,0,1,8,choice,After,Color,1,-2,2.0,6,6,1,1,2.0
523,775,w0198d08,Yellow,1.0,3323.0,1,2,8,choice,After,Color,2,1,2.0,6,6,2,2,2.0
524,776,w0198d08,Red,0.0,458.0,0,3,8,choice,After,Color,3,2,-3.0,6,6,3,3,-3.0
525,846,wf63b737,Blue,0.0,2446.0,0,1,1,choice,After,Color,3,6,-2.0,2,2,2,2,-1.0
526,849,wf63b737,Green,1.0,1967.0,0,1,2,choice,Before,Color,2,-2,0.0,2,2,1,1,-2.0
527,850,wf63b737,Red,1.0,643.0,0,2,2,choice,Before,Color,1,-2,1.0,2,2,1,2,1.0
528,852,wf63b737,Animal,1.0,4488.0,0,1,3,choice,After,Category,3,-2,2.0,3,3,2,2,3.0
529,854,wf63b737,Object,0.0,940.0,1,3,3,choice,After,Category,2,-1,0.0,3,3,1,2,-1.0
530,855,wf63b737,Object,1.0,4065.0,1,1,4,choice,Before,Category,3,2,4.0,5,5,2,3,3.0
531,856,wf63b737,Scene,0.0,527.0,1,2,4,choice,Before,Category,1,-2,1.0,5,5,1,1,1.0
532,857,wf63b737,Animal,1.0,271.0,1,3,4,choice,Before,Category,2,1,-3.0,5,5,2,2,-3.0
533,858,wf63b737,Animal,1.0,2151.0,1,1,5,choice,After,Category,1,2,1.0,5,5,1,1,1.0
534,859,wf63b737,Scene,1.0,821.0,1,2,5,choice,After,Category,2,1,1.0,5,5,1,1,-1.0
535,860,wf63b737,Object,0.0,2060.0,1,3,5,choice,After,Category,3,-2,1.0,5,5,3,3,1.0
536,861,wf63b737,Blue,0.0,1868.0,1,1,6,choice,Before,Color,3,-1,-3.0,6,6,3,3,-3.0
537,862,wf63b737,Green,0.0,1681.0,1,2,6,choice,Before,Color,1,-2,-1.0,6,6,1,1,-1.0
538,863,wf63b737,Red,1.0,704.0,1,3,6,choice,Before,Color,2,4,2.0,6,6,2,2,2.0
539,864,wf63b737,Green,0.0,4490.0,1,1,7,choice,After,Color,3,-1,-1.0,6,6,3,3,-1.0
540,865,wf63b737,Yellow,1.0,1916.0,1,2,7,choice,After,Color,1,1,2.0,6,6,1,1,2.0
541,866,wf63b737,Blue,0.0,4113.0,0,3,7,choice,After,Color,2,1,-4.0,6,6,2,2,-4.0
542,867,wf63b737,Animal,1.0,3933.0,1,1,8,choice,Before,Category,2,3,3.0,5,5,2,2,3.0
543,868,wf63b737,Object,0.0,1418.0,1,2,8,choice,Before,Category,1,-2,-1.0,5,5,1,1,-1.0
544,869,wf63b737,Food,0.0,657.0,1,3,8,choice,Before,Category,3,-1,-2.0,5,5,2,3,-3.0
545,870,wf60f9d4,Food,0.0,3793.0,0,1,1,choice,Before,Category,1,2,-1.0,5,5,1,1,-1.0
546,871,wf60f9d4,Animal,1.0,1465.0,0,2,1,choice,Before,Category,3,-4,-2.0,5,5,3,4,-2.0
547,872,wf60f9d4,Scene,1.0,4524.0,1,3,1,choice,Before,Category,2,4,4.0,5,5,1,1,2.0
548,873,wf60f9d4,Object,1.0,7199.0,0,1,2,choice,After,Category,2,-2,-2.0,5,5,1,1,-1.0
549,874,wf60f9d4,Food,1.0,2342.0,1,2,2,choice,After,Category,3,2,2.0,5,5,3,3,2.0
550,875,wf60f9d4,Scene,0.0,1380.0,0,3,2,choice,After,Category,1,1,1.0,5,5,1,2,1.0
551,876,wf60f9d4,Red,1.0,2885.0,0,1,3,choice,Before,Color,3,-2,-1.0,2,2,1,2,1.0
552,878,wf60f9d4,Blue,1.0,3090.0,1,3,3,choice,Before,Color,1,2,2.0,2,2,1,1,2.0
553,879,wf60f9d4,Food,1.0,3551.0,0,1,4,choice,After,Category,3,-1,1.0,4,4,2,2,-1.0
554,881,wf60f9d4,Object,0.0,1600.0,0,3,4,choice,After,Category,2,1,1.0,4,4,2,2,1.0
555,882,wf60f9d4,Green,1.0,2549.0,0,1,5,choice,Before,Color,3,-3,-1.0,3,3,2,2,1.0
556,883,wf60f9d4,Red,0.0,3975.0,0,2,5,choice,Before,Color,2,4,3.0,3,3,1,1,2.0
557,886,wf60f9d4,Yellow,,,0,2,6,choice,After,Color,1,-2,-2.0,3,3,1,1,-2.0
558,887,wf60f9d4,Red,1.0,7213.0,1,3,6,choice,After,Color,2,4,0.0,3,3,2,2,0.0
559,888,wf60f9d4,Food,1.0,6913.0,1,1,7,choice,Before,Category,1,2,2.0,1,1,1,2,2.0
560,891,wf60f9d4,Blue,0.0,1403.0,0,1,8,choice,After,Color,3,1,4.0,1,1,1,2,1.0
561,894,w27e1de9,Animal,,,0,1,1,choice,Before,Category,2,-1,-3.0,4,4,1,1,-1.0
562,895,w27e1de9,Scene,1.0,4613.0,0,2,1,choice,Before,Category,3,-2,1.0,4,4,2,2,3.0
563,896,w27e1de9,Food,0.0,4452.0,0,3,1,choice,Before,Category,1,1,1.0,4,4,1,2,1.0
564,897,w27e1de9,Scene,1.0,3314.0,1,1,2,choice,After,Category,2,3,4.0,4,4,2,2,4.0
565,898,w27e1de9,Food,0.0,1963.0,1,2,2,choice,After,Category,3,-4,-4.0,4,4,2,2,-2.0
566,900,w27e1de9,Animal,1.0,7233.0,1,1,3,choice,Before,Category,3,3,4.0,5,5,2,2,3.0
567,901,w27e1de9,Food,0.0,2772.0,0,2,3,choice,Before,Category,1,1,-2.0,5,5,1,1,-2.0
568,902,w27e1de9,Object,1.0,3149.0,0,3,3,choice,Before,Category,2,-3,-3.0,5,5,2,3,-3.0
569,904,w27e1de9,Red,,,0,2,4,choice,After,Color,3,2,2.0,4,4,2,2,3.0
570,905,w27e1de9,Green,1.0,1392.0,1,3,4,choice,After,Color,2,1,0.0,4,4,2,3,0.0
571,906,w27e1de9,Red,0.0,1883.0,0,1,5,choice,Before,Color,2,3,1.0,6,6,2,2,1.0
572,907,w27e1de9,Yellow,1.0,931.0,0,2,5,choice,Before,Color,1,-2,-1.0,6,6,1,1,-1.0
573,908,w27e1de9,Green,0.0,2448.0,1,3,5,choice,Before,Color,3,-1,4.0,6,6,3,3,4.0
574,909,w27e1de9,Animal,1.0,1712.0,1,1,8,choice,After,Category,2,4,1.0,1,1,1,1,-1.0
575,912,w313d7aa,Food,1.0,1946.0,0,1,1,choice,After,Category,1,-2,2.0,3,3,1,1,2.0
576,913,w313d7aa,Object,0.0,1749.0,0,2,1,choice,After,Category,3,1,-3.0,3,3,1,1,1.0
577,914,w313d7aa,Animal,1.0,1075.0,1,3,1,choice,After,Category,2,1,0.0,3,3,1,1,-1.0
578,915,w313d7aa,Blue,0.0,685.0,0,1,2,choice,Before,Color,3,4,2.0,2,2,1,1,-1.0
579,916,w313d7aa,Yellow,1.0,843.0,0,2,2,choice,Before,Color,2,-4,1.0,2,2,1,1,-1.0
580,918,w313d7aa,Food,1.0,3115.0,0,1,3,choice,After,Category,3,-2,-1.0,5,5,3,3,-1.0
581,919,w313d7aa,Scene,1.0,2653.0,0,2,3,choice,After,Category,2,-1,-1.0,5,5,1,1,1.0
582,920,w313d7aa,Animal,1.0,976.0,1,3,3,choice,After,Category,1,2,2.0,5,5,1,1,2.0
583,921,wc55b6c8,Food,1.0,4624.0,0,1,1,choice,After,Category,1,-1,-1.0,4,4,1,1,-1.0
584,922,wc55b6c8,Animal,0.0,3546.0,0,2,1,choice,After,Category,2,2,0.0,4,4,1,1,1.0
585,923,wc55b6c8,Scene,1.0,4446.0,0,3,1,choice,After,Category,3,-1,-1.0,4,4,2,2,0.0
586,924,wc55b6c8,Scene,0.0,5629.0,1,1,2,choice,Before,Category,2,-3,-1.0,3,3,1,2,1.0
587,925,wc55b6c8,Object,1.0,3154.0,1,2,2,choice,Before,Category,1,2,2.0,3,3,1,1,2.0
588,926,wc55b6c8,Food,1.0,1922.0,1,3,2,choice,Before,Category,3,1,5.0,3,3,1,1,2.0
589,927,wc55b6c8,Blue,0.0,5985.0,0,1,3,choice,After,Color,2,1,2.0,4,4,1,1,1.0
590,928,wc55b6c8,Yellow,1.0,1649.0,1,2,3,choice,After,Color,3,1,2.0,4,4,2,3,0.0
591,929,wc55b6c8,Green,0.0,2518.0,1,3,3,choice,After,Color,1,-1,-2.0,4,4,1,2,-2.0
592,930,wc55b6c8,Green,0.0,1779.0,1,1,4,choice,Before,Color,2,-1,-4.0,3,3,1,1,-2.0
593,931,wc55b6c8,Blue,0.0,911.0,1,2,4,choice,Before,Color,1,-2,-1.0,3,3,1,1,-1.0
594,932,wc55b6c8,Red,1.0,843.0,1,3,4,choice,Before,Color,3,2,6.0,3,3,1,2,2.0
595,933,wc55b6c8,Green,1.0,6541.0,0,1,5,choice,After,Color,3,-1,-5.0,4,4,2,2,-3.0
596,935,wc55b6c8,Red,0.0,2351.0,1,3,5,choice,After,Color,2,-1,2.0,4,4,2,2,2.0
597,937,wc55b6c8,Red,0.0,5832.0,1,2,6,choice,Before,Color,2,-1,2.0,3,3,1,2,1.0
598,938,wc55b6c8,Blue,1.0,510.0,1,3,6,choice,Before,Color,3,1,1.0,3,3,2,2,0.0
599,940,wc55b6c8,Object,0.0,4741.0,0,2,7,choice,After,Category,2,2,0.0,3,3,2,2,0.0
600,941,wc55b6c8,Scene,1.0,3143.0,0,3,7,choice,After,Category,3,-2,5.0,3,3,1,1,2.0
601,943,wc55b6c8,Food,1.0,2397.0,1,2,8,choice,Before,Category,3,1,2.0,2,2,1,1,-1.0
602,944,wc55b6c8,Animal,1.0,2470.0,1,3,8,choice,Before,Category,2,1,3.0,2,2,1,1,2.0
603,946,w9173175,Object,1.0,7092.0,1,2,1,choice,Before,Category,3,2,-3.0,1,1,1,1,-2.0
604,948,w9173175,Food,1.0,2431.0,1,1,2,choice,After,Category,2,2,0.0,3,3,2,2,0.0
605,949,w9173175,Scene,1.0,1018.0,0,2,2,choice,After,Category,3,-4,2.0,3,3,1,2,2.0
606,951,w9173175,Animal,1.0,1549.0,1,1,3,choice,Before,Category,1,2,2.0,3,3,1,1,2.0
607,952,w9173175,Food,0.0,1748.0,1,2,3,choice,Before,Category,3,-2,-4.0,3,3,1,1,-2.0
608,953,w9173175,Scene,0.0,2540.0,1,3,3,choice,Before,Category,2,-1,1.0,3,3,1,2,0.0
609,956,w9173175,Yellow,0.0,870.0,0,3,4,choice,After,Color,3,2,3.0,2,2,2,2,1.0
610,957,w9173175,Blue,0.0,1482.0,1,1,5,choice,Before,Color,2,-2,-2.0,3,3,1,1,-1.0
611,959,w9173175,Green,1.0,776.0,1,3,5,choice,Before,Color,3,6,6.0,3,3,2,2,4.0
612,960,w9173175,Food,0.0,5023.0,0,1,6,choice,After,Category,2,2,2.0,3,3,1,1,1.0
613,961,w9173175,Object,0.0,4573.0,1,2,6,choice,After,Category,1,-1,-2.0,3,3,1,1,-2.0
614,962,w9173175,Scene,1.0,1033.0,0,3,6,choice,After,Category,3,-2,1.0,3,3,1,1,-1.0
615,963,w9173175,Green,0.0,1111.0,1,1,7,choice,Before,Color,3,-1,5.0,2,2,1,1,2.0
616,965,w9173175,Red,0.0,1176.0,1,3,7,choice,Before,Color,1,-1,-1.0,2,2,1,1,-1.0
617,966,w9173175,Red,1.0,3648.0,1,1,8,choice,After,Color,3,1,4.0,3,3,2,2,3.0
618,967,w9173175,Yellow,0.0,3501.0,0,2,8,choice,After,Color,2,1,-1.0,3,3,1,1,1.0
619,970,w397496b,Object,0.0,2191.0,1,2,1,choice,After,Category,3,-6,4.0,1,1,1,1,1.0
620,972,w397496b,Yellow,,,0,1,2,choice,Before,Color,2,3,3.0,5,5,2,2,3.0
621,974,w397496b,Blue,0.0,4305.0,1,3,2,choice,Before,Color,3,-3,-3.0,5,5,3,3,-3.0
622,975,w397496b,Green,1.0,4201.0,0,1,3,choice,After,Color,3,-2,-2.0,5,5,3,3,-2.0
623,976,w397496b,Red,0.0,5188.0,1,2,3,choice,After,Color,2,-1,2.0,5,5,1,1,1.0
624,977,w397496b,Blue,1.0,5707.0,1,3,3,choice,After,Color,1,2,2.0,5,5,1,1,2.0
625,978,w397496b,Blue,0.0,2509.0,1,1,4,choice,Before,Color,2,-4,-4.0,4,4,1,2,-2.0
626,979,w397496b,Red,0.0,3570.0,1,2,4,choice,Before,Color,1,-1,1.0,4,4,1,1,1.0
627,980,w397496b,Yellow,1.0,1910.0,1,3,4,choice,Before,Color,3,5,5.0,4,4,2,3,4.0
628,981,w397496b,Food,1.0,3449.0,1,1,5,choice,After,Category,1,1,1.0,6,6,1,1,1.0
629,982,w397496b,Object,0.0,4753.0,0,2,5,choice,After,Category,3,3,-1.0,6,6,3,3,-1.0
630,983,w397496b,Animal,0.0,4329.0,1,3,5,choice,After,Category,2,-2,-2.0,6,6,2,2,-2.0
631,984,w397496b,Scene,0.0,2931.0,1,1,6,choice,Before,Category,3,-3,-3.0,4,4,2,2,-4.0
632,986,w397496b,Food,1.0,4152.0,1,3,6,choice,Before,Category,2,1,2.0,4,4,2,2,2.0
633,987,w397496b,Animal,1.0,3333.0,1,1,7,choice,After,Category,2,1,3.0,4,4,1,1,2.0
634,988,w397496b,Scene,1.0,3365.0,1,2,7,choice,After,Category,1,2,2.0,4,4,1,1,2.0
635,989,w397496b,Object,0.0,3455.0,1,3,7,choice,After,Category,3,-1,-1.0,4,4,2,2,0.0
636,990,w397496b,Yellow,0.0,2802.0,1,1,8,choice,Before,Color,2,-3,-3.0,6,6,2,2,-3.0
637,991,w397496b,Green,1.0,2111.0,1,2,8,choice,Before,Color,1,2,1.0,6,6,1,1,1.0
638,992,w397496b,Red,1.0,886.0,1,3,8,choice,Before,Color,3,3,3.0,6,6,3,3,3.0
639,1021,w7dbf1a9,Blue,0.0,1917.0,0,2,1,choice,Before,Color,3,1,2.0,2,2,2,2,0.0
640,1023,w7dbf1a9,Scene,1.0,3358.0,1,1,2,choice,After,Category,3,1,3.0,3,3,2,2,4.0
641,1025,w7dbf1a9,Food,1.0,1986.0,1,3,2,choice,After,Category,2,1,-2.0,3,3,1,1,-1.0
642,1028,w7dbf1a9,Object,1.0,688.0,1,3,3,choice,Before,Category,3,1,2.0,1,1,1,1,1.0
643,1029,w7dbf1a9,Object,1.0,3825.0,0,1,4,choice,After,Category,3,-1,2.0,2,2,2,2,3.0
644,1034,w7dbf1a9,Green,0.0,2084.0,0,3,5,choice,Before,Color,3,2,-1.0,1,1,1,2,-2.0
645,1035,w7dbf1a9,Yellow,1.0,1706.0,0,1,6,choice,After,Color,2,-3,4.0,2,2,1,1,2.0
646,1036,w7dbf1a9,Red,0.0,2798.0,0,2,6,choice,After,Color,3,2,0.0,2,2,1,1,2.0
647,1039,w7dbf1a9,Yellow,1.0,1380.0,1,2,7,choice,Before,Color,3,4,1.0,2,2,1,1,2.0
648,1040,w7dbf1a9,Green,0.0,5602.0,1,3,7,choice,Before,Color,2,-2,-1.0,2,2,1,1,1.0
649,1042,w7dbf1a9,Animal,1.0,1297.0,0,2,8,choice,After,Category,3,-2,-3.0,3,3,1,1,-2.0
650,1043,w7dbf1a9,Object,0.0,2582.0,0,3,8,choice,After,Category,2,1,-1.0,3,3,2,2,-1.0
651,1045,w227f955,Blue,1.0,3933.0,0,2,1,choice,After,Color,3,-1,-1.0,3,3,2,2,1.0
652,1046,w227f955,Green,1.0,4545.0,1,3,1,choice,After,Color,2,4,4.0,3,3,1,2,2.0
653,1047,w227f955,Green,1.0,1671.0,1,1,2,choice,Before,Color,1,2,1.0,2,2,1,1,1.0
654,1048,w227f955,Red,0.0,2365.0,1,2,2,choice,Before,Color,3,-4,-3.0,2,2,1,1,-1.0
655,1050,w227f955,Food,1.0,2566.0,0,1,3,choice,After,Category,3,-1,3.0,4,4,2,2,4.0
656,1051,w227f955,Animal,0.0,4469.0,0,2,3,choice,After,Category,2,1,1.0,4,4,1,1,-1.0
657,1052,w227f955,Scene,0.0,3244.0,0,3,3,choice,After,Category,1,1,-1.0,4,4,1,1,-1.0
658,1055,w227f955,Yellow,1.0,549.0,1,3,4,choice,Before,Color,3,1,1.0,1,1,1,1,2.0
659,1056,w227f955,Food,1.0,3231.0,0,1,8,choice,Before,Category,1,-1,-1.0,4,4,1,2,-1.0
660,1057,w227f955,Object,0.0,1005.0,1,2,8,choice,Before,Category,3,-2,0.0,4,4,2,2,1.0
661,1058,w227f955,Animal,1.0,1577.0,1,3,8,choice,Before,Category,2,4,3.0,4,4,1,2,1.0
662,1059,w6eb92cc,Red,0.0,2056.0,1,1,2,choice,After,Color,3,-3,-1.0,2,2,2,2,-3.0
663,1062,w6eb92cc,Object,1.0,2652.0,0,1,4,choice,After,Category,1,-1,-1.0,4,4,1,1,-1.0
664,1063,w6eb92cc,Scene,1.0,1944.0,0,2,4,choice,After,Category,2,-3,-3.0,4,4,1,2,-2.0
665,1064,w6eb92cc,Animal,1.0,3652.0,1,3,4,choice,After,Category,3,5,1.0,4,4,2,2,0.0
666,1066,w6eb92cc,Animal,1.0,1163.0,0,2,5,choice,Before,Category,2,-3,1.0,1,1,1,1,-1.0
667,1068,w6eb92cc,Object,,,0,1,6,choice,After,Category,1,-1,2.0,4,4,1,1,2.0
668,1069,w6eb92cc,Scene,1.0,3722.0,1,2,6,choice,After,Category,2,4,3.0,4,4,2,2,3.0
669,1070,w6eb92cc,Food,1.0,812.0,0,3,6,choice,After,Category,3,-2,-1.0,4,4,1,1,-1.0
670,1071,w6eb92cc,Yellow,0.0,1698.0,1,1,7,choice,Before,Color,2,-1,0.0,1,1,1,1,1.0
671,1074,wc512962,Food,,,0,1,1,choice,Before,Category,1,1,1.0,5,5,1,1,1.0
672,1075,wc512962,Animal,0.0,3590.0,1,2,1,choice,Before,Category,2,-3,-3.0,5,5,1,2,-1.0
673,1076,wc512962,Object,1.0,2884.0,1,3,1,choice,Before,Category,3,2,2.0,5,5,3,3,2.0
674,1077,wc512962,Object,1.0,4421.0,0,1,2,choice,After,Category,1,-1,-1.0,5,5,1,1,-1.0
675,1078,wc512962,Food,1.0,1541.0,1,2,2,choice,After,Category,2,2,2.0,5,5,2,2,2.0
676,1079,wc512962,Scene,0.0,1455.0,1,3,2,choice,After,Category,3,-2,-2.0,5,5,2,2,-1.0
677,1080,wc512962,Red,0.0,1850.0,1,1,3,choice,Before,Color,2,-1,-1.0,6,6,2,2,-1.0
678,1081,wc512962,Blue,0.0,3325.0,1,2,3,choice,Before,Color,1,-2,-2.0,6,6,1,1,-2.0
679,1082,wc512962,Green,1.0,718.0,1,3,3,choice,Before,Color,3,2,2.0,6,6,3,3,2.0
680,1083,wc512962,Yellow,0.0,1727.0,1,1,4,choice,After,Color,3,-1,-4.0,5,5,3,3,-4.0
681,1084,wc512962,Blue,1.0,1465.0,1,2,4,choice,After,Color,2,3,3.0,5,5,1,2,2.0
682,1085,wc512962,Red,0.0,642.0,1,3,4,choice,After,Color,1,-1,-1.0,5,5,1,1,-1.0
683,1086,wc512962,Yellow,0.0,1825.0,0,1,5,choice,Before,Color,1,1,-1.0,6,6,1,1,-1.0
684,1087,wc512962,Green,0.0,1662.0,1,2,5,choice,Before,Color,3,-1,-1.0,6,6,3,3,-1.0
685,1088,wc512962,Blue,0.0,896.0,0,3,5,choice,Before,Color,2,1,1.0,6,6,2,2,1.0
686,1089,wc512962,Blue,0.0,2511.0,1,1,6,choice,After,Color,2,-1,-1.0,6,6,2,2,-1.0
687,1090,wc512962,Yellow,,,0,2,6,choice,After,Color,1,2,-2.0,6,6,1,1,-2.0
688,1091,wc512962,Red,0.0,2449.0,1,3,6,choice,After,Color,3,-1,0.0,6,6,3,3,0.0
689,1092,wc512962,Scene,1.0,1513.0,1,1,7,choice,Before,Category,1,1,1.0,6,6,1,1,1.0
690,1093,wc512962,Animal,1.0,1679.0,0,2,7,choice,Before,Category,2,-1,-1.0,6,6,2,2,-1.0
691,1094,wc512962,Object,0.0,604.0,1,3,7,choice,Before,Category,3,-2,-2.0,6,6,3,3,-2.0
692,1095,wc512962,Animal,0.0,3146.0,1,1,8,choice,After,Category,2,-3,-3.0,6,6,2,2,-3.0
693,1096,wc512962,Scene,1.0,1653.0,1,2,8,choice,After,Category,1,2,2.0,6,6,1,1,2.0
694,1097,wc512962,Food,1.0,3075.0,1,3,8,choice,After,Category,3,2,2.0,6,6,3,3,2.0
695,1098,we9754da,Blue,0.0,3120.0,1,1,1,choice,Before,Color,2,-2,0.0,4,4,2,2,0.0
696,1099,we9754da,Green,1.0,1416.0,1,2,1,choice,Before,Color,1,1,0.0,4,4,1,1,0.0
697,1100,we9754da,Yellow,1.0,7457.0,1,3,1,choice,Before,Color,3,1,1.0,4,4,1,1,1.0
698,1101,we9754da,Object,1.0,7406.0,1,1,2,choice,After,Category,2,1,1.0,6,6,2,2,1.0
699,1102,we9754da,Food,1.0,2693.0,1,2,2,choice,After,Category,3,2,2.0,6,6,3,3,2.0
700,1103,we9754da,Scene,0.0,3727.0,1,3,2,choice,After,Category,1,-1,-1.0,6,6,1,1,-1.0
701,1104,we9754da,Red,,,0,1,3,choice,Before,Color,3,2,3.0,5,5,2,2,2.0
702,1105,we9754da,Yellow,0.0,2427.0,1,2,3,choice,Before,Color,2,-3,-1.0,5,5,2,2,-1.0
703,1106,we9754da,Blue,1.0,1262.0,1,3,3,choice,Before,Color,1,1,1.0,5,5,1,1,1.0
704,1107,we9754da,Food,0.0,5139.0,0,1,4,choice,After,Category,3,1,0.0,2,2,1,1,-2.0
705,1109,we9754da,Animal,0.0,7399.0,1,3,4,choice,After,Category,1,-2,-1.0,2,2,1,1,-1.0
706,1110,we9754da,Animal,0.0,2618.0,1,1,5,choice,Before,Category,3,-2,-1.0,5,5,3,3,-1.0
707,1111,we9754da,Scene,1.0,1774.0,0,2,5,choice,Before,Category,2,-1,0.0,5,5,2,2,0.0
708,1113,we9754da,Yellow,1.0,3570.0,0,1,6,choice,After,Color,1,-2,-1.0,4,4,1,1,-1.0
709,1114,we9754da,Red,1.0,2925.0,1,2,6,choice,After,Color,2,1,0.0,4,4,1,2,-2.0
710,1115,we9754da,Green,0.0,2187.0,0,3,6,choice,After,Color,3,2,5.0,4,4,2,2,3.0
711,1116,we9754da,Scene,1.0,3947.0,1,1,7,choice,Before,Category,2,3,2.0,4,4,1,2,1.0
712,1117,we9754da,Object,0.0,1202.0,1,2,7,choice,Before,Category,3,-6,-6.0,4,4,2,2,-4.0
713,1118,we9754da,Food,1.0,643.0,1,3,7,choice,Before,Category,1,2,2.0,4,4,1,1,2.0
714,1119,we9754da,Yellow,1.0,2869.0,1,1,8,choice,After,Color,2,1,0.0,3,3,1,1,-1.0
715,1121,we9754da,Blue,1.0,2349.0,0,3,8,choice,After,Color,3,-2,3.0,3,3,2,2,4.0
716,1124,w601970c,Animal,0.0,1524.0,0,3,5,choice,After,Category,2,4,0.0,1,1,1,1,0.0
717,1127,w601970c,Red,1.0,2058.0,0,3,7,choice,After,Color,3,-1,0.0,1,1,1,1,0.0
718,1128,w3f5fa74,Yellow,1.0,2457.0,1,1,1,choice,Before,Color,1,2,-1.0,2,2,1,1,-1.0
719,1129,w3f5fa74,Blue,0.0,2286.0,1,2,1,choice,Before,Color,3,-1,6.0,2,2,1,1,2.0
720,1131,w3f5fa74,Scene,1.0,5001.0,0,1,2,choice,After,Category,3,-3,0.0,1,1,1,1,-1.0
721,1135,w3f5fa74,Yellow,0.0,2332.0,0,2,3,choice,Before,Color,3,2,3.0,1,1,1,1,2.0
722,1138,w3f5fa74,Animal,1.0,756.0,0,2,4,choice,After,Category,3,-4,2.0,3,3,2,2,3.0
723,1139,w3f5fa74,Scene,0.0,1156.0,0,3,4,choice,After,Category,2,3,0.0,3,3,1,1,1.0
724,1140,w3f5fa74,Animal,1.0,859.0,0,1,5,choice,Before,Category,2,-2,4.0,2,2,1,2,2.0
725,1141,w3f5fa74,Food,1.0,1702.0,1,2,5,choice,Before,Category,3,1,-1.0,2,2,1,1,-1.0
726,1145,w3f5fa74,Red,1.0,1284.0,0,3,6,choice,After,Color,2,-1,-1.0,1,1,1,1,1.0
727,1147,w3f5fa74,Object,1.0,1833.0,0,2,7,choice,Before,Category,2,-3,2.0,2,2,1,1,1.0
728,1148,w3f5fa74,Scene,1.0,1466.0,1,3,7,choice,Before,Category,3,5,6.0,2,2,1,2,2.0
729,1149,w3f5fa74,Green,1.0,4070.0,0,1,8,choice,After,Color,2,-3,1.0,2,2,1,1,2.0
730,1150,w3f5fa74,Blue,1.0,2850.0,1,2,8,choice,After,Color,3,2,3.0,2,2,1,1,2.0
731,1152,w19d0170,Object,1.0,2928.0,0,1,1,choice,After,Category,3,-2,-3.0,2,2,1,1,-2.0
732,1153,w19d0170,Animal,1.0,1729.0,1,2,1,choice,After,Category,2,3,1.0,2,2,1,1,2.0
733,1155,w19d0170,Yellow,1.0,1960.0,1,1,6,choice,Before,Color,1,2,2.0,6,6,1,1,2.0
734,1156,w19d0170,Green,1.0,3173.0,1,2,6,choice,Before,Color,3,2,3.0,6,6,3,3,3.0
735,1157,w19d0170,Red,0.0,3513.0,1,3,6,choice,Before,Color,2,-2,-2.0,6,6,2,2,-2.0
736,1158,w19d0170,Animal,1.0,2275.0,1,1,7,choice,After,Category,1,1,1.0,5,5,1,1,1.0
737,1159,w19d0170,Scene,0.0,3982.0,1,2,7,choice,After,Category,3,-1,-1.0,5,5,3,3,-1.0
738,1160,w19d0170,Object,1.0,3539.0,1,3,7,choice,After,Category,2,1,1.0,5,5,1,1,-1.0
739,1161,w19d0170,Red,0.0,2005.0,1,1,8,choice,Before,Color,1,-2,-2.0,4,4,1,1,-2.0
740,1162,w19d0170,Blue,0.0,2964.0,1,2,8,choice,Before,Color,3,-1,-2.0,4,4,2,2,-1.0
741,1163,w19d0170,Green,1.0,1291.0,1,3,8,choice,Before,Color,2,4,3.0,4,4,1,1,1.0
742,1164,w4b6424d,Yellow,0.0,5324.0,0,1,1,choice,Before,Color,3,4,-2.0,5,5,2,2,-3.0
743,1165,w4b6424d,Green,0.0,3363.0,1,2,1,choice,Before,Color,1,-2,2.0,5,5,1,2,2.0
744,1166,w4b6424d,Blue,1.0,994.0,0,3,1,choice,Before,Color,2,-4,0.0,5,5,2,2,0.0
745,1168,w4b6424d,Red,,,0,2,2,choice,After,Color,1,-1,2.0,2,2,1,2,2.0
746,1169,w4b6424d,Green,0.0,2585.0,0,3,2,choice,After,Color,3,1,4.0,2,2,1,2,2.0
747,1171,w4b6424d,Animal,1.0,2443.0,1,2,3,choice,Before,Category,2,1,0.0,4,4,2,3,0.0
748,1172,w4b6424d,Scene,1.0,4590.0,0,3,3,choice,Before,Category,3,-1,2.0,4,4,2,3,0.0
749,1174,w4b6424d,Animal,1.0,1552.0,0,2,4,choice,After,Category,1,-1,2.0,3,3,1,3,2.0
750,1175,w4b6424d,Object,1.0,2501.0,1,3,4,choice,After,Category,2,2,0.0,3,3,2,2,0.0
751,1176,w4b6424d,Blue,1.0,3973.0,0,1,5,choice,Before,Color,1,-2,-2.0,5,5,1,2,-2.0
752,1177,w4b6424d,Green,1.0,691.0,1,2,5,choice,Before,Color,3,4,3.0,5,5,2,2,2.0
753,1178,w4b6424d,Red,0.0,1146.0,1,3,5,choice,Before,Color,2,-4,0.0,5,5,2,2,0.0
754,1179,w4b6424d,Animal,0.0,2999.0,1,1,6,choice,After,Category,1,-2,1.0,3,3,1,3,1.0
755,1181,w4b6424d,Scene,1.0,1335.0,1,3,6,choice,After,Category,2,3,4.0,3,3,2,3,4.0
756,1182,w4b6424d,Scene,0.0,2083.0,1,1,7,choice,Before,Category,2,-4,-4.0,2,2,1,3,-2.0
757,1183,w4b6424d,Object,1.0,4009.0,1,2,7,choice,Before,Category,3,2,2.0,2,2,1,1,2.0
758,1186,w4b6424d,Blue,0.0,2127.0,1,2,8,choice,After,Color,3,-1,6.0,4,4,2,3,4.0
759,1187,w4b6424d,Yellow,1.0,2944.0,1,3,8,choice,After,Color,2,1,-3.0,4,4,2,3,-3.0
760,1188,wc4c38a3,Food,1.0,3083.0,0,1,1,choice,After,Category,1,-2,2.0,4,4,1,1,2.0
761,1189,wc4c38a3,Object,0.0,3154.0,1,2,1,choice,After,Category,3,-2,2.0,4,4,2,2,1.0
762,1190,wc4c38a3,Animal,1.0,859.0,1,3,1,choice,After,Category,2,4,4.0,4,4,1,2,2.0
763,1191,wc4c38a3,Yellow,0.0,1642.0,1,1,2,choice,Before,Color,2,-3,-3.0,4,4,1,1,-2.0
764,1192,wc4c38a3,Blue,1.0,1140.0,1,2,2,choice,Before,Color,3,3,3.0,4,4,2,2,2.0
765,1193,wc4c38a3,Green,0.0,840.0,1,3,2,choice,Before,Color,1,-2,-2.0,4,4,1,1,-2.0
766,1195,wc4c38a3,Blue,0.0,2017.0,1,2,5,choice,After,Color,2,-4,-3.0,3,3,2,3,-3.0
767,1196,wc4c38a3,Green,1.0,4868.0,1,3,5,choice,After,Color,3,1,1.0,3,3,1,1,-2.0
768,1197,wc4c38a3,Yellow,1.0,2052.0,1,1,6,choice,Before,Color,1,1,-1.0,3,3,1,1,-1.0
769,1198,wc4c38a3,Red,0.0,1361.0,1,2,6,choice,Before,Color,3,-1,3.0,3,3,1,2,1.0
770,1199,wc4c38a3,Blue,1.0,1814.0,0,3,6,choice,Before,Color,2,-1,1.0,3,3,1,1,2.0
771,1201,wc4c38a3,Object,0.0,2220.0,0,2,7,choice,After,Category,3,2,1.0,1,1,1,1,1.0
772,1203,wc4c38a3,Yellow,1.0,2160.0,1,1,8,choice,Before,Color,2,1,4.0,3,3,1,1,2.0
773,1205,wc4c38a3,Red,0.0,929.0,1,3,8,choice,Before,Color,3,-2,-5.0,3,3,2,2,-3.0
774,1206,w504748f,Blue,,,0,1,1,choice,After,Color,3,2,-2.0,2,2,1,1,-2.0
775,1208,w504748f,Green,1.0,4820.0,0,3,1,choice,After,Color,2,-1,0.0,2,2,1,1,-1.0
776,1210,w504748f,Red,1.0,1282.0,1,2,2,choice,Before,Color,3,3,3.0,2,2,1,1,1.0
777,1211,w504748f,Blue,1.0,5210.0,0,3,2,choice,Before,Color,2,-4,4.0,2,2,1,1,2.0
778,1213,w504748f,Food,1.0,2129.0,0,2,3,choice,After,Category,3,-4,-1.0,1,1,1,1,-1.0
779,1215,w504748f,Red,0.0,5923.0,1,1,4,choice,Before,Color,1,-1,1.0,3,3,1,1,1.0
780,1216,w504748f,Yellow,1.0,6149.0,0,2,4,choice,Before,Color,3,-1,0.0,3,3,1,2,2.0
781,1217,w504748f,Blue,1.0,3320.0,1,3,4,choice,Before,Color,2,3,3.0,3,3,1,1,1.0
782,1218,w504748f,Animal,0.0,5079.0,0,1,5,choice,After,Category,2,3,3.0,3,3,1,1,1.0
783,1220,w504748f,Food,1.0,2540.0,0,3,5,choice,After,Category,3,-6,-2.0,3,3,2,2,-4.0
784,1221,w504748f,Food,1.0,7113.0,1,1,6,choice,Before,Category,3,2,4.0,4,4,1,1,1.0
785,1222,w504748f,Scene,0.0,5284.0,1,2,6,choice,Before,Category,2,-3,-1.0,4,4,2,2,-1.0
786,1223,w504748f,Object,1.0,4640.0,1,3,6,choice,Before,Category,1,2,-2.0,4,4,1,1,-2.0
787,1225,w504748f,Scene,0.0,0.0,1,2,7,choice,After,Category,3,-1,1.0,4,4,2,2,-1.0
788,1226,w504748f,Object,1.0,4464.0,1,3,7,choice,After,Category,2,4,0.0,4,4,2,2,0.0
789,1227,w504748f,Green,0.0,4095.0,1,1,8,choice,Before,Color,2,-1,1.0,3,3,1,1,-1.0
790,1228,w504748f,Blue,,,0,2,8,choice,Before,Color,3,-2,-2.0,3,3,2,2,-1.0
791,1230,w14cb402,Green,1.0,2165.0,1,1,1,choice,Before,Color,1,2,1.0,4,4,1,1,1.0
792,1231,w14cb402,Blue,1.0,3018.0,1,2,1,choice,Before,Color,2,1,1.0,4,4,1,2,-1.0
793,1232,w14cb402,Yellow,0.0,1102.0,1,3,1,choice,Before,Color,3,-1,-4.0,4,4,2,3,-2.0
794,1233,w14cb402,Blue,1.0,2363.0,0,1,2,choice,After,Color,2,-1,-3.0,2,2,1,2,-1.0
795,1234,w14cb402,Green,0.0,551.0,1,2,2,choice,After,Color,3,-2,-2.0,2,2,1,1,-2.0
796,1236,w14cb402,Red,1.0,1518.0,1,1,3,choice,Before,Color,3,1,6.0,3,3,1,1,2.0
797,1237,w14cb402,Yellow,0.0,579.0,1,2,3,choice,Before,Color,2,-3,1.0,3,3,1,1,2.0
798,1238,w14cb402,Blue,1.0,618.0,1,3,3,choice,Before,Color,1,1,-2.0,3,3,1,1,-2.0
799,1240,w14cb402,Object,0.0,575.0,1,2,4,choice,After,Category,2,-3,4.0,1,1,1,1,2.0
800,1242,w14cb402,Red,1.0,2371.0,0,1,5,choice,Before,Color,2,-1,-4.0,4,4,1,1,-2.0
801,1243,w14cb402,Green,0.0,327.0,0,2,5,choice,Before,Color,3,1,-2.0,4,4,3,3,-2.0
802,1245,w14cb402,Scene,1.0,3231.0,1,1,6,choice,After,Category,2,4,4.0,5,5,1,1,2.0
803,1246,w14cb402,Animal,0.0,991.0,0,2,6,choice,After,Category,1,1,2.0,5,5,1,1,4.0
804,1247,w14cb402,Food,0.0,696.0,1,3,6,choice,After,Category,3,-4,-2.0,5,5,2,2,-3.0
805,1248,w14cb402,Object,1.0,1733.0,0,1,7,choice,Before,Category,3,-4,1.0,2,2,1,1,1.0
806,1250,w14cb402,Scene,1.0,923.0,1,3,7,choice,Before,Category,2,4,4.0,2,2,1,2,2.0
807,1251,w14cb402,Food,0.0,3654.0,1,1,8,choice,After,Category,1,-1,1.0,2,2,1,3,1.0
808,1252,w14cb402,Object,1.0,610.0,1,2,8,choice,After,Category,3,1,6.0,2,2,1,1,2.0
809,1254,w49d88d0,Object,0.0,7198.0,0,1,1,choice,Before,Category,3,2,1.0,5,5,2,2,2.0
810,1255,w49d88d0,Animal,0.0,5519.0,0,2,1,choice,Before,Category,2,1,-1.0,5,5,2,3,-1.0
811,1256,w49d88d0,Food,1.0,1836.0,0,3,1,choice,Before,Category,1,-2,-1.0,5,5,1,1,-1.0
812,1258,w49d88d0,Food,1.0,5498.0,1,2,2,choice,After,Category,1,2,1.0,3,3,1,1,1.0
813,1259,w49d88d0,Scene,1.0,3270.0,0,3,2,choice,After,Category,3,-2,1.0,3,3,2,2,-1.0
814,1260,w49d88d0,Blue,0.0,3363.0,1,1,4,choice,After,Color,2,-1,1.0,3,3,1,1,2.0
815,1261,w49d88d0,Yellow,1.0,988.0,1,2,4,choice,After,Color,3,2,-2.0,3,3,1,2,-2.0
816,1262,w49d88d0,Red,0.0,1592.0,1,3,4,choice,After,Color,1,-2,-2.0,3,3,1,1,-2.0
817,1263,w49d88d0,Blue,1.0,3222.0,0,1,5,choice,Before,Color,1,-1,2.0,4,4,1,1,2.0
818,1264,w49d88d0,Yellow,1.0,627.0,0,2,5,choice,Before,Color,2,-3,2.0,4,4,1,2,1.0
819,1265,w49d88d0,Green,0.0,3015.0,0,3,5,choice,Before,Color,3,4,3.0,4,4,2,2,4.0
820,1267,w49d88d0,Food,0.0,3068.0,1,2,6,choice,After,Category,3,-3,2.0,1,1,1,1,-1.0
821,1269,w49d88d0,Red,1.0,944.0,1,1,7,choice,Before,Color,3,1,1.0,4,4,2,2,0.0
822,1270,w49d88d0,Blue,0.0,497.0,1,2,7,choice,Before,Color,1,-2,-2.0,4,4,1,1,-2.0
823,1271,w49d88d0,Yellow,0.0,841.0,1,3,7,choice,Before,Color,2,-1,-3.0,4,4,1,3,-2.0
824,1273,w49d88d0,Food,0.0,670.0,1,2,8,choice,After,Category,1,-2,-2.0,1,1,1,1,-2.0
