,index,wid,option,choice,rt,correct,trial_number,game,phase,n_true_memories,n_considered,value,remembered_value,n_total_memories_shown,n_total_memories,n_remembered_shown,n_remembered
0,0,w7c1d29f,Red,0.0,1832.0,0,1,1,choice,1,1,2,2.0,4,4,1,1
1,1,w7c1d29f,Blue,0.0,3242.0,1,2,1,choice,3,2,-4,-4.0,4,4,2,2
2,2,w7c1d29f,Yellow,1.0,2277.0,0,3,1,choice,2,1,-5,8.0,4,4,1,1
3,3,w7c1d29f,Scene,0.0,5080.0,0,1,2,choice,3,2,3,1.0,6,6,3,3
4,4,w7c1d29f,Object,1.0,5931.0,1,2,2,choice,2,2,4,5.0,6,6,2,2
5,5,w7c1d29f,Food,0.0,3359.0,1,3,2,choice,1,1,-7,-8.0,6,6,1,1
6,6,w7c1d29f,Food,1.0,2484.0,0,1,3,choice,3,3,-3,2.0,6,6,3,3
7,7,w7c1d29f,Animal,0.0,4797.0,0,2,3,choice,1,0,9,6.0,6,6,1,1
8,8,w7c1d29f,Blue,0.0,3778.0,1,3,3,choice,2,1,-4,-1.0,6,6,2,2
9,9,w7c1d29f,Green,1.0,5062.0,0,1,4,choice,2,0,-4,-3.0,6,6,2,2
10,10,w7c1d29f,Yellow,0.0,3593.0,1,2,4,choice,1,1,-3,-4.0,6,6,1,1
11,11,w7c1d29f,Red,1.0,1632.0,1,3,4,choice,3,2,1,4.0,6,6,3,3
12,12,w7c1d29f,Animal,0.0,5005.0,1,1,5,choice,3,3,-1,-4.0,6,6,3,3
13,13,w7c1d29f,Scene,1.0,1734.0,0,2,5,choice,2,2,-7,9.0,6,6,2,2
14,14,w7c1d29f,Object,1.0,4263.0,1,3,5,choice,1,1,5,5.0,6,6,1,1
15,15,wfe9216a,Scene,1.0,7246.0,1,1,1,choice,3,1,5,-14.0,5,5,2,2
16,16,wfe9216a,Object,0.0,5883.0,1,2,1,choice,2,1,-4,-1.0,5,5,2,2
17,17,wfe9216a,Animal,0.0,3731.0,1,3,1,choice,1,1,-2,0.0,5,5,1,2
18,18,wfe9216a,Object,1.0,6613.0,0,1,2,choice,1,1,-7,-8.0,6,6,1,1
19,19,wfe9216a,Food,0.0,1011.0,0,2,2,choice,3,2,1,1.0,6,6,3,3
20,20,wfe9216a,Scene,1.0,5879.0,1,3,2,choice,2,1,1,-1.0,6,6,2,2
21,21,wfe9216a,Green,1.0,2241.0,1,1,3,choice,2,1,2,-9.0,3,3,1,1
22,22,wfe9216a,Animal,1.0,4574.0,0,2,3,choice,1,1,-8,0.0,3,3,1,1
23,23,wfe9216a,Yellow,1.0,4446.0,0,3,3,choice,3,1,-6,8.0,3,3,2,2
24,24,wfe9216a,Blue,1.0,2087.0,1,1,4,choice,3,2,1,0.0,4,4,3,3
25,25,wfe9216a,Yellow,1.0,2988.0,0,2,4,choice,1,1,-4,3.0,4,4,1,2
26,26,wfe9216a,Red,0.0,2107.0,0,3,4,choice,2,1,2,-2.0,4,4,0,1
27,27,wfe9216a,Blue,1.0,2722.0,1,1,5,choice,1,1,6,6.0,2,2,0,1
28,28,wfe9216a,Green,0.0,1695.0,1,2,5,choice,3,1,-1,-1.0,2,2,1,1
29,29,wfe9216a,Red,0.0,2822.0,1,3,5,choice,2,1,-1,6.0,2,2,1,1
30,30,w47f6859,Food,0.0,5449.0,1,1,1,choice,3,0,-1,-3.0,4,4,1,1
31,31,w47f6859,Object,1.0,1854.0,1,2,1,choice,1,1,3,-2.0,4,4,1,2
32,32,w47f6859,Animal,0.0,707.0,1,3,1,choice,2,1,-1,10.0,4,4,2,2
33,33,w47f6859,Scene,1.0,2881.0,0,1,2,choice,2,1,-5,13.0,5,5,2,2
34,34,w47f6859,Food,1.0,6069.0,0,2,2,choice,3,1,-2,10.0,5,5,2,2
35,35,w47f6859,Yellow,0.0,1990.0,1,3,2,choice,1,1,-3,-2.0,5,5,1,1
36,36,w47f6859,Scene,0.0,1180.0,0,1,3,choice,2,1,8,8.0,4,4,2,2
37,37,w47f6859,Green,0.0,2552.0,1,2,3,choice,3,2,-4,-4.0,4,4,2,2
38,38,w47f6859,Red,0.0,1526.0,0,3,3,choice,1,0,3,9.0,4,4,0,0
39,39,w47f6859,Object,0.0,3921.0,1,1,4,choice,1,0,-6,-6.0,3,3,1,1
40,40,w47f6859,Green,1.0,4501.0,1,2,4,choice,2,1,2,-3.0,3,3,0,0
41,41,w47f6859,Blue,1.0,2959.0,0,3,4,choice,3,2,-5,-22.0,3,3,2,2
42,42,w47f6859,Blue,0.0,3326.0,1,1,5,choice,1,1,-7,-3.0,1,1,0,1
43,43,w47f6859,Yellow,0.0,586.0,0,2,5,choice,3,1,1,-9.0,1,1,1,1
44,44,w47f6859,Animal,1.0,1225.0,0,3,5,choice,2,0,-3,9.0,1,1,0,0
45,45,w488be27,Blue,1.0,4993.0,0,1,1,choice,1,1,-6,-6.0,5,5,1,1
46,46,w488be27,Scene,0.0,4538.0,0,2,1,choice,2,1,3,-1.0,5,5,2,2
47,47,w488be27,Object,1.0,2514.0,0,3,1,choice,3,1,-4,-4.0,5,5,2,2
48,48,w488be27,Animal,1.0,3742.0,0,1,2,choice,2,1,-1,6.0,3,3,1,1
49,49,w488be27,Object,0.0,2391.0,0,2,2,choice,3,1,5,7.0,3,3,1,1
50,50,w488be27,Green,0.0,2073.0,0,3,2,choice,1,1,6,0.0,3,3,0,0
51,51,w488be27,Red,0.0,3897.0,1,1,3,choice,2,1,-1,-1.0,1,1,1,1
52,52,w488be27,Food,0.0,2036.0,0,2,3,choice,1,0,4,4.0,1,1,0,0
53,53,w488be27,Yellow,1.0,2997.0,1,3,3,choice,3,0,3,-5.0,1,1,0,0
54,54,w488be27,Food,1.0,3024.0,1,1,4,choice,2,1,4,6.0,2,2,0,0
55,55,w488be27,Yellow,1.0,2930.0,1,2,4,choice,1,0,3,0.0,2,2,0,0
56,56,w488be27,Blue,0.0,1539.0,1,3,4,choice,3,1,-3,-5.0,2,2,1,1
57,57,w488be27,Red,0.0,3923.0,1,1,5,choice,2,2,-3,6.0,1,1,1,1
58,58,w488be27,Green,1.0,5215.0,1,2,5,choice,3,2,6,0.0,1,1,0,0
59,59,w488be27,Animal,1.0,1901.0,1,3,5,choice,1,1,7,0.0,1,1,0,0
60,75,w973f72a,Green,1.0,2893.0,1,1,1,choice,1,1,3,3.0,3,3,0,0
61,76,w973f72a,Scene,1.0,2150.0,1,2,1,choice,2,1,3,11.0,3,3,1,1
62,77,w973f72a,Object,1.0,1932.0,1,3,1,choice,3,1,2,9.0,3,3,1,1
63,78,w973f72a,Red,1.0,2163.0,1,1,2,choice,2,1,2,2.0,3,3,1,1
64,79,w973f72a,Yellow,0.0,1550.0,1,2,2,choice,1,1,-6,-3.0,3,3,1,1
65,80,w973f72a,Blue,1.0,811.0,1,3,2,choice,3,1,1,2.0,3,3,1,1
66,81,w973f72a,Scene,0.0,4258.0,0,1,3,choice,1,0,5,0.0,1,1,0,0
67,82,w973f72a,Food,1.0,1772.0,0,2,3,choice,3,1,-5,-2.0,1,1,0,0
68,83,w973f72a,Yellow,0.0,1890.0,1,3,3,choice,2,1,-4,2.0,1,1,1,1
69,84,w973f72a,Animal,1.0,1996.0,1,1,4,choice,2,2,1,1.0,4,4,2,2
70,85,w973f72a,Food,1.0,1687.0,0,2,4,choice,1,1,-8,0.0,4,4,0,0
71,86,w973f72a,Green,1.0,1305.0,1,3,4,choice,3,2,1,10.0,4,4,2,2
72,87,w973f72a,Object,0.0,3266.0,1,1,5,choice,3,2,-1,-3.0,2,2,2,2
73,88,w973f72a,Animal,1.0,1974.0,1,2,5,choice,1,2,6,0.0,2,2,0,0
74,89,w973f72a,Red,0.0,3835.0,1,3,5,choice,2,1,-1,3.0,2,2,1,1
75,90,wd7d7085,Animal,0.0,4377.0,0,1,1,choice,1,4,8,3.0,2,2,0,1
76,91,wd7d7085,Object,1.0,2157.0,0,2,1,choice,2,4,-4,8.0,2,2,1,2
77,92,wd7d7085,Yellow,1.0,1971.0,0,3,1,choice,3,4,-5,13.0,2,2,2,3
78,93,wd7d7085,Red,0.0,2639.0,1,1,2,choice,1,3,-5,-7.0,6,6,1,1
79,94,wd7d7085,Blue,1.0,3659.0,1,2,2,choice,2,2,1,-1.0,6,6,2,2
80,95,wd7d7085,Yellow,1.0,1269.0,1,3,2,choice,3,3,3,-6.0,6,6,3,3
81,96,wd7d7085,Food,0.0,3319.0,1,1,3,choice,3,2,-3,19.0,5,5,3,3
82,97,wd7d7085,Scene,1.0,4212.0,1,2,3,choice,1,2,6,-4.0,5,5,1,2
83,98,wd7d7085,Animal,1.0,3379.0,0,3,3,choice,2,2,-4,2.0,5,5,1,1
84,99,wd7d7085,Food,1.0,1923.0,1,1,4,choice,1,2,7,7.0,5,5,1,1
85,100,wd7d7085,Green,1.0,4674.0,0,2,4,choice,3,2,-1,9.0,5,5,2,2
86,101,wd7d7085,Blue,1.0,1565.0,0,3,4,choice,2,3,-4,15.0,5,5,2,3
87,102,wd7d7085,Red,0.0,1564.0,0,1,5,choice,2,2,3,-7.0,4,4,1,3
88,103,wd7d7085,Object,1.0,2090.0,1,2,5,choice,3,2,2,10.0,4,4,1,1
89,104,wd7d7085,Scene,1.0,1751.0,0,3,5,choice,1,2,-8,5.0,4,4,1,2
90,105,w502a382,Blue,1.0,2113.0,1,1,1,choice,3,4,3,8.0,4,4,2,2
91,106,w502a382,Food,0.0,955.0,0,2,1,choice,1,4,5,2.0,4,4,0,1
92,107,w502a382,Scene,1.0,1417.0,0,3,1,choice,2,4,-4,3.0,4,4,2,2
93,108,w502a382,Animal,1.0,1853.0,1,1,2,choice,3,4,1,1.0,1,1,0,1
94,109,w502a382,Food,0.0,676.0,0,2,2,choice,2,5,5,10.0,1,1,0,1
95,110,w502a382,Yellow,1.0,1184.0,0,3,2,choice,1,3,-4,-2.0,1,1,0,0
96,111,w502a382,Animal,1.0,1225.0,1,1,3,choice,2,3,5,-1.0,1,1,0,1
97,112,w502a382,Scene,1.0,573.0,1,2,3,choice,3,4,1,-4.0,1,1,1,2
98,113,w502a382,Object,1.0,400.0,0,3,3,choice,1,3,-5,5.0,1,1,0,1
99,114,w502a382,Red,1.0,1709.0,1,1,4,choice,3,4,2,1.0,3,3,1,2
100,115,w502a382,Blue,0.0,886.0,1,2,4,choice,1,4,-9,-5.0,3,3,1,2
101,116,w502a382,Green,1.0,430.0,1,3,4,choice,2,3,1,12.0,3,3,1,2
102,117,w502a382,Yellow,1.0,1058.0,1,1,5,choice,2,3,2,3.0,2,2,0,0
103,118,w502a382,Object,0.0,1248.0,1,2,5,choice,1,4,-9,5.0,2,2,0,1
104,119,w502a382,Green,1.0,387.0,1,3,5,choice,3,3,3,5.0,2,2,1,2
105,120,w8f47681,Object,,,0,1,1,choice,2,1,7,-10.0,3,3,1,1
106,121,w8f47681,Red,0.0,60.0,1,2,1,choice,3,1,-2,4.0,3,3,2,2
107,122,w8f47681,Food,1.0,2578.0,0,3,1,choice,1,3,-5,2.0,3,3,1,2
108,123,w8f47681,Blue,0.0,3654.0,1,1,2,choice,3,3,-2,-5.0,4,4,2,2
109,124,w8f47681,Yellow,1.0,2640.0,1,2,2,choice,1,1,8,8.0,4,4,1,1
110,125,w8f47681,Green,0.0,2507.0,0,3,2,choice,2,1,1,1.0,4,4,1,1
111,126,w8f47681,Object,0.0,3130.0,1,1,3,choice,2,2,-3,0.0,5,5,1,1
112,127,w8f47681,Green,0.0,3120.0,1,2,3,choice,1,1,-3,2.0,5,5,1,1
113,128,w8f47681,Blue,0.0,3710.0,0,3,3,choice,3,3,1,1.0,5,5,3,3
114,129,w8f47681,Animal,1.0,3573.0,1,1,4,choice,1,1,7,3.0,5,5,1,1
115,130,w8f47681,Food,0.0,3286.0,0,2,4,choice,2,2,1,-2.0,5,5,1,1
116,131,w8f47681,Red,1.0,2381.0,1,3,4,choice,3,2,5,-2.0,5,5,3,3
117,132,w8f47681,Scene,1.0,2781.0,1,1,5,choice,1,1,3,3.0,5,5,1,1
118,133,w8f47681,Yellow,0.0,1125.0,1,2,5,choice,2,1,-4,-1.0,5,5,2,2
119,134,w8f47681,Animal,1.0,4168.0,0,3,5,choice,3,3,-3,-8.0,5,5,2,2
120,135,w8e2568d,Green,1.0,3342.0,1,1,1,choice,2,3,8,11.0,3,3,1,1
121,136,w8e2568d,Animal,0.0,3566.0,0,2,1,choice,1,3,6,5.0,3,3,1,2
122,137,w8e2568d,Blue,1.0,992.0,1,3,1,choice,3,3,3,17.0,3,3,1,1
123,138,w8e2568d,Animal,0.0,5411.0,0,1,2,choice,3,3,2,-5.0,4,4,2,2
124,139,w8e2568d,Yellow,1.0,2866.0,0,2,2,choice,2,1,-4,4.0,4,4,1,1
125,140,w8e2568d,Object,1.0,6104.0,0,3,2,choice,1,3,-2,9.0,4,4,1,1
126,141,w8e2568d,Food,1.0,1380.0,0,1,3,choice,3,2,-3,11.0,2,2,1,1
127,142,w8e2568d,Red,1.0,2174.0,1,2,3,choice,2,1,4,9.0,2,2,1,1
128,143,w8e2568d,Object,,,0,3,3,choice,1,2,9,-5.0,2,2,0,0
129,144,w8e2568d,Food,0.0,3208.0,1,1,4,choice,3,4,-4,9.0,1,1,1,1
130,145,w8e2568d,Scene,,,0,2,4,choice,1,2,7,7.0,1,1,0,0
131,146,w8e2568d,Red,0.0,2827.0,0,3,4,choice,2,2,3,9.0,1,1,0,0
132,147,w8e2568d,Yellow,0.0,3098.0,1,1,5,choice,2,1,-1,10.0,1,1,0,0
133,148,w8e2568d,Scene,1.0,888.0,1,2,5,choice,3,2,3,17.0,1,1,0,0
134,149,w8e2568d,Blue,1.0,3538.0,1,3,5,choice,1,2,5,7.0,1,1,0,0
135,150,w4a643e0,Animal,0.0,7458.0,0,1,1,choice,1,2,9,-8.0,4,4,0,0
136,151,w4a643e0,Scene,1.0,1250.0,0,2,1,choice,2,2,-4,-3.0,4,4,2,2
137,152,w4a643e0,Object,1.0,1761.0,0,3,1,choice,3,8,-3,7.0,4,4,2,3
138,153,w4a643e0,Blue,1.0,1704.0,0,1,2,choice,3,4,-2,-2.0,6,6,3,3
139,154,w4a643e0,Red,0.0,1355.0,0,2,2,choice,2,1,1,-8.0,6,6,2,2
140,155,w4a643e0,Green,1.0,2568.0,1,3,2,choice,1,0,3,8.0,6,6,1,1
141,156,w4a643e0,Animal,1.0,1021.0,0,1,3,choice,3,2,-1,4.0,2,2,0,0
142,157,w4a643e0,Blue,0.0,675.0,1,2,3,choice,1,1,-4,9.0,2,2,0,1
143,158,w4a643e0,Food,1.0,1081.0,0,3,3,choice,2,3,-1,2.0,2,2,2,3
144,159,w4a643e0,Object,1.0,2078.0,1,1,4,choice,3,2,3,-10.0,3,3,2,2
145,160,w4a643e0,Yellow,0.0,920.0,1,2,4,choice,1,2,-8,-7.0,3,3,1,1
146,161,w4a643e0,Food,0.0,405.0,1,3,4,choice,2,3,-3,4.0,3,3,1,2
147,162,w4a643e0,Red,1.0,1123.0,1,1,5,choice,1,0,4,3.0,2,2,0,0
148,163,w4a643e0,Yellow,0.0,777.0,1,2,5,choice,3,3,-6,12.0,2,2,2,2
149,164,w4a643e0,Scene,1.0,677.0,1,3,5,choice,2,2,8,1.0,2,2,1,2
150,165,w9f6c077,Blue,1.0,2238.0,0,1,1,choice,3,5,-1,-8.0,4,4,2,2
151,166,w9f6c077,Green,1.0,3124.0,1,2,1,choice,2,4,1,6.0,4,4,1,1
152,167,w9f6c077,Scene,0.0,2172.0,1,3,1,choice,1,4,-5,-5.0,4,4,1,1
153,168,w9f6c077,Object,1.0,3082.0,0,1,2,choice,2,2,-1,9.0,4,4,1,1
154,169,w9f6c077,Yellow,0.0,2098.0,1,2,2,choice,1,1,-6,-3.0,4,4,1,1
155,170,w9f6c077,Food,1.0,1994.0,1,3,2,choice,3,2,3,-6.0,4,4,2,2
156,171,w9f6c077,Green,1.0,5055.0,1,1,3,choice,1,2,5,2.0,2,2,1,1
157,172,w9f6c077,Red,1.0,988.0,0,2,3,choice,3,2,-1,9.0,2,2,1,1
158,173,w9f6c077,Animal,1.0,1646.0,1,3,3,choice,2,1,8,6.0,2,2,1,1
159,174,w9f6c077,Scene,0.0,2430.0,1,1,4,choice,3,3,-3,-9.0,4,4,3,3
160,175,w9f6c077,Object,0.0,3240.0,0,2,4,choice,1,2,7,1.0,4,4,0,1
161,176,w9f6c077,Red,0.0,4257.0,1,3,4,choice,2,2,-2,-4.0,4,4,2,3
162,177,w9f6c077,Food,0.0,4455.0,0,1,5,choice,2,1,2,-1.0,3,3,1,1
163,178,w9f6c077,Yellow,0.0,2117.0,1,2,5,choice,3,2,-1,-4.0,3,3,2,3
164,179,w9f6c077,Animal,1.0,1680.0,1,3,5,choice,1,1,5,5.0,3,3,1,1
165,180,w5317a1b,Blue,1.0,3728.0,1,1,1,choice,1,2,3,4.0,4,4,0,0
166,181,w5317a1b,Yellow,1.0,787.0,1,2,1,choice,2,2,5,9.0,4,4,2,2
167,182,w5317a1b,Green,1.0,1327.0,0,3,1,choice,3,3,-3,0.0,4,4,2,2
168,183,w5317a1b,Food,1.0,2579.0,0,1,2,choice,3,2,-4,-4.0,5,5,2,2
169,184,w5317a1b,Scene,1.0,2775.0,1,2,2,choice,2,2,3,3.0,5,5,2,2
170,185,w5317a1b,Green,0.0,2591.0,1,3,2,choice,1,1,-6,-6.0,5,5,0,0
171,186,w5317a1b,Animal,0.0,3479.0,1,1,3,choice,3,3,-1,-2.0,6,6,3,3
172,187,w5317a1b,Red,1.0,1443.0,1,2,3,choice,2,2,5,4.0,6,6,2,2
173,188,w5317a1b,Blue,1.0,1032.0,0,3,3,choice,1,1,-5,-6.0,6,6,1,1
174,189,w5317a1b,Animal,1.0,1489.0,1,1,4,choice,1,1,5,3.0,5,5,1,2
175,190,w5317a1b,Red,0.0,6801.0,0,2,4,choice,3,2,3,-2.0,5,5,3,3
176,191,w5317a1b,Food,1.0,3195.0,0,3,4,choice,2,2,-7,-7.0,5,5,2,2
177,192,w5317a1b,Object,1.0,1906.0,0,1,5,choice,2,2,-8,-8.0,4,4,1,1
178,193,w5317a1b,Yellow,1.0,2803.0,0,2,5,choice,1,1,-6,-4.0,4,4,1,1
179,194,w5317a1b,Scene,1.0,1036.0,0,3,5,choice,3,1,-3,8.0,4,4,3,3
180,195,w4f4cbdd,Object,1.0,2754.0,0,1,1,choice,1,4,-5,5.0,5,5,1,1
181,196,w4f4cbdd,Green,1.0,2285.0,0,2,1,choice,3,4,-1,5.0,5,5,3,3
182,197,w4f4cbdd,Food,1.0,4352.0,1,3,1,choice,2,4,5,5.0,5,5,2,2
183,198,w4f4cbdd,Red,1.0,2504.0,1,1,2,choice,3,1,5,22.0,5,5,2,2
184,199,w4f4cbdd,Scene,1.0,2080.0,1,2,2,choice,2,2,3,3.0,5,5,2,2
185,200,w4f4cbdd,Yellow,0.0,2512.0,1,3,2,choice,1,2,-7,-7.0,5,5,1,1
186,201,w4f4cbdd,Blue,1.0,4100.0,1,1,3,choice,3,1,2,10.0,3,3,1,1
187,202,w4f4cbdd,Yellow,1.0,1388.0,1,2,3,choice,2,2,4,16.0,3,3,1,2
188,203,w4f4cbdd,Animal,0.0,2490.0,1,3,3,choice,1,2,-5,-3.0,3,3,0,1
189,204,w4f4cbdd,Scene,1.0,2612.0,1,1,4,choice,3,3,1,2.0,3,3,3,3
190,205,w4f4cbdd,Food,0.0,3177.0,1,2,4,choice,2,1,-2,3.0,3,3,0,0
191,206,w4f4cbdd,Red,0.0,1762.0,0,3,4,choice,1,1,3,8.0,3,3,1,1
192,207,w4f4cbdd,Blue,1.0,2258.0,1,1,5,choice,2,1,1,0.0,5,5,1,1
193,208,w4f4cbdd,Object,1.0,1703.0,1,2,5,choice,3,3,1,1.0,5,5,3,3
194,209,w4f4cbdd,Green,1.0,1641.0,1,3,5,choice,1,1,5,5.0,5,5,1,1
195,210,w4bdc2df,Food,1.0,2935.0,1,1,1,choice,2,4,5,6.0,2,2,0,1
196,211,w4bdc2df,Red,1.0,2314.0,0,2,1,choice,3,4,-2,-2.0,2,2,1,2
197,212,w4bdc2df,Yellow,1.0,3359.0,1,3,1,choice,1,3,7,-3.0,2,2,0,1
198,213,w4bdc2df,Animal,0.0,2203.0,0,1,2,choice,1,2,5,0.0,3,3,0,1
199,214,w4bdc2df,Scene,1.0,1155.0,0,2,2,choice,3,5,-5,-11.0,3,3,2,2
200,215,w4bdc2df,Food,1.0,386.0,1,3,2,choice,2,1,1,0.0,3,3,1,1
201,216,w4bdc2df,Scene,1.0,2723.0,1,1,3,choice,1,3,6,0.0,2,2,1,2
202,217,w4bdc2df,Yellow,1.0,6768.0,1,2,3,choice,2,3,4,-4.0,2,2,1,1
203,218,w4bdc2df,Green,0.0,2302.0,0,3,3,choice,3,3,2,-8.0,2,2,1,1
204,219,w4bdc2df,Red,1.0,2778.0,1,1,4,choice,2,2,1,-16.0,2,2,1,2
205,220,w4bdc2df,Green,0.0,3244.0,0,2,4,choice,3,1,1,-17.0,2,2,1,2
206,221,w4bdc2df,Object,0.0,3264.0,0,3,4,choice,1,2,4,-8.0,2,2,0,0
207,222,w4bdc2df,Blue,1.0,1690.0,0,1,5,choice,3,1,-2,-6.0,4,4,1,1
208,223,w4bdc2df,Object,0.0,2806.0,1,2,5,choice,1,2,-3,0.0,4,4,0,0
209,224,w4bdc2df,Animal,0.0,1869.0,1,3,5,choice,2,1,-2,0.0,4,4,1,2
210,225,wd071aa9,Yellow,1.0,1770.0,1,1,1,choice,3,2,2,5.0,5,5,3,3
211,226,wd071aa9,Animal,0.0,2416.0,1,2,1,choice,2,2,-5,-12.0,5,5,2,2
212,227,wd071aa9,Object,1.0,2415.0,0,3,1,choice,1,1,-7,3.0,5,5,1,1
213,228,wd071aa9,Scene,0.0,1708.0,1,1,2,choice,2,3,-2,-3.0,4,4,2,3
214,229,wd071aa9,Food,0.0,3326.0,1,2,2,choice,3,3,-4,8.0,4,4,2,2
215,230,wd071aa9,Animal,0.0,3170.0,0,3,2,choice,1,0,8,-2.0,4,4,0,0
216,231,wd071aa9,Green,1.0,2457.0,1,1,3,choice,3,3,5,6.0,6,6,3,3
217,232,wd071aa9,Blue,0.0,3198.0,1,2,3,choice,1,1,-7,-7.0,6,6,1,1
218,233,wd071aa9,Yellow,1.0,3017.0,0,3,3,choice,2,2,-1,6.0,6,6,2,2
219,234,wd071aa9,Blue,0.0,2318.0,0,1,4,choice,2,2,7,-9.0,4,4,1,1
220,235,wd071aa9,Object,1.0,2257.0,1,2,4,choice,3,2,4,2.0,4,4,1,2
221,236,wd071aa9,Food,0.0,2775.0,1,3,4,choice,1,1,-7,3.0,4,4,1,1
222,237,wd071aa9,Scene,1.0,1136.0,1,1,5,choice,2,2,2,2.0,4,4,2,2
223,238,wd071aa9,Green,0.0,3979.0,1,2,5,choice,1,2,-8,-8.0,4,4,1,1
224,239,wd071aa9,Red,1.0,1797.0,1,3,5,choice,3,2,1,11.0,4,4,1,2
225,240,w8d56791,Red,,,0,1,1,choice,1,3,5,-1.0,4,4,0,1
226,241,w8d56791,Yellow,,,0,2,1,choice,2,3,-1,10.0,4,4,2,2
227,242,w8d56791,Green,,,0,3,1,choice,3,3,-3,-17.0,4,4,2,2
228,243,w8d56791,Scene,1.0,2697.0,0,1,2,choice,1,3,-5,-1.0,4,4,1,1
229,244,w8d56791,Food,0.0,1048.0,0,2,2,choice,3,4,6,1.0,4,4,1,1
230,245,w8d56791,Object,1.0,3736.0,0,3,2,choice,2,4,-1,-8.0,4,4,2,2
231,246,w8d56791,Scene,0.0,2456.0,1,1,3,choice,3,3,-2,7.0,1,1,0,0
232,247,w8d56791,Yellow,1.0,827.0,1,2,3,choice,2,3,4,-2.0,1,1,0,1
233,248,w8d56791,Animal,0.0,575.0,0,3,3,choice,1,3,7,9.0,1,1,0,0
234,249,w8d56791,Food,1.0,3356.0,0,1,4,choice,1,5,-5,9.0,2,2,0,1
235,250,w8d56791,Blue,0.0,2898.0,1,2,4,choice,2,4,-2,-2.0,2,2,0,1
236,251,w8d56791,Object,1.0,2894.0,1,3,4,choice,3,4,1,9.0,2,2,2,2
237,252,w8d56791,Red,1.0,2511.0,1,1,5,choice,2,2,5,8.0,4,4,1,1
238,253,w8d56791,Animal,0.0,1766.0,1,2,5,choice,3,3,-6,9.0,4,4,1,1
239,254,w8d56791,Green,0.0,4433.0,1,3,5,choice,1,3,-7,1.0,4,4,1,1
240,255,wf93dad0,Object,1.0,6606.0,0,1,1,choice,1,1,-6,-2.0,4,4,1,1
241,256,wf93dad0,Animal,0.0,1301.0,0,2,1,choice,3,3,6,13.0,4,4,2,2
242,257,wf93dad0,Food,1.0,2313.0,0,3,1,choice,2,1,-2,-9.0,4,4,1,1
243,258,wf93dad0,Scene,1.0,2827.0,1,1,2,choice,2,2,1,9.0,5,5,2,2
244,259,wf93dad0,Food,0.0,4803.0,1,2,2,choice,1,1,-7,4.0,5,5,1,1
245,260,wf93dad0,Yellow,1.0,1742.0,1,3,2,choice,3,2,1,16.0,5,5,2,2
246,261,wf93dad0,Red,1.0,1909.0,1,1,3,choice,1,1,7,6.0,5,5,1,1
247,262,wf93dad0,Blue,0.0,1604.0,1,2,3,choice,3,3,-1,-10.0,5,5,3,3
248,263,wf93dad0,Green,0.0,2433.0,1,3,3,choice,2,2,-2,-4.0,5,5,1,1
249,264,wf93dad0,Blue,0.0,4829.0,1,1,4,choice,2,1,-8,-7.0,5,5,1,1
250,265,wf93dad0,Red,1.0,1358.0,0,2,4,choice,3,3,-2,-1.0,5,5,3,3
251,266,wf93dad0,Green,1.0,3237.0,1,3,4,choice,1,1,6,4.0,5,5,1,1
252,267,wf93dad0,Yellow,0.0,4384.0,0,1,5,choice,3,3,2,-3.0,4,4,2,2
253,268,wf93dad0,Animal,0.0,5569.0,1,2,5,choice,2,1,-3,2.0,4,4,0,0
254,269,wf93dad0,Object,0.0,3326.0,1,3,5,choice,1,1,-5,-6.0,4,4,1,1
255,270,wa797b6a,Green,,,0,1,1,choice,1,1,8,8.0,6,6,1,1
256,271,wa797b6a,Blue,0.0,1609.0,1,2,1,choice,3,5,-1,-4.0,6,6,3,3
257,272,wa797b6a,Red,0.0,2805.0,1,3,1,choice,2,2,-2,-2.0,6,6,2,2
258,273,wa797b6a,Blue,0.0,5237.0,0,1,2,choice,3,3,3,-3.0,6,6,3,3
259,274,wa797b6a,Food,1.0,2984.0,0,2,2,choice,2,2,-3,-2.0,6,6,2,2
260,275,wa797b6a,Yellow,0.0,1895.0,1,3,2,choice,1,1,-2,-4.0,6,6,1,1
261,276,wa797b6a,Red,1.0,1771.0,1,1,3,choice,3,3,2,12.0,5,5,3,3
262,277,wa797b6a,Animal,,,0,2,3,choice,1,2,3,5.0,5,5,1,2
263,278,wa797b6a,Yellow,1.0,4207.0,0,3,3,choice,2,2,-2,-2.0,5,5,2,2
264,279,wa797b6a,Food,1.0,4289.0,0,1,4,choice,1,1,-7,5.0,6,6,1,1
265,280,wa797b6a,Scene,1.0,1854.0,1,2,4,choice,3,3,1,8.0,6,6,3,3
266,281,wa797b6a,Animal,0.0,1355.0,1,3,4,choice,2,2,-3,-5.0,6,6,2,2
267,282,wa797b6a,Scene,0.0,2264.0,1,1,5,choice,2,2,-6,-4.0,6,6,2,2
268,283,wa797b6a,Green,1.0,711.0,1,2,5,choice,3,3,2,4.0,6,6,3,3
269,284,wa797b6a,Object,1.0,700.0,1,3,5,choice,1,1,5,4.0,6,6,1,1
270,285,w7cfc37e,Object,1.0,6678.0,0,1,2,choice,3,3,-1,0.0,4,4,2,2
271,286,w7cfc37e,Blue,0.0,3674.0,1,2,2,choice,1,3,-4,0.0,4,4,1,1
272,287,w7cfc37e,Animal,1.0,1099.0,0,3,2,choice,2,4,-7,-3.0,4,4,1,1
273,288,w7cfc37e,Yellow,1.0,2514.0,1,1,3,choice,2,2,1,0.0,3,3,1,1
274,289,w7cfc37e,Blue,0.0,2384.0,0,2,3,choice,3,3,4,-8.0,3,3,1,1
275,290,w7cfc37e,Food,1.0,1496.0,1,3,3,choice,1,3,7,0.0,3,3,0,0
276,291,w7cfc37e,Green,1.0,2129.0,0,1,4,choice,2,3,-6,0.0,3,3,2,2
277,292,w7cfc37e,Red,0.0,1435.0,0,2,4,choice,1,3,8,-8.0,3,3,0,0
278,293,w7cfc37e,Yellow,0.0,1545.0,1,3,4,choice,3,3,-1,0.0,3,3,1,1
279,294,w7cfc37e,Animal,0.0,4521.0,0,1,5,choice,1,4,9,-9.0,3,3,1,1
280,295,w7cfc37e,Scene,1.0,2130.0,0,2,5,choice,3,2,-5,-3.0,3,3,2,2
281,296,w7cfc37e,Food,1.0,3943.0,0,3,5,choice,2,4,-3,0.0,3,3,0,1
282,297,w797a1e5,Red,0.0,7391.0,1,1,1,choice,3,2,-1,-1.0,6,6,3,3
283,298,w797a1e5,Food,,,0,2,1,choice,2,4,-2,-2.0,6,6,2,2
284,299,w797a1e5,Green,1.0,2630.0,1,3,1,choice,1,4,9,9.0,6,6,1,1
285,300,w797a1e5,Green,1.0,4768.0,1,1,2,choice,2,2,3,3.0,6,6,2,2
286,301,w797a1e5,Object,,,0,2,2,choice,3,3,-1,-1.0,6,6,3,3
287,302,w797a1e5,Animal,0.0,1489.0,0,3,2,choice,1,2,5,5.0,6,6,1,1
288,303,w797a1e5,Scene,1.0,4802.0,0,1,3,choice,2,2,-1,-1.0,6,6,2,2
289,304,w797a1e5,Blue,1.0,3905.0,1,2,3,choice,1,1,2,2.0,6,6,1,1
290,305,w797a1e5,Yellow,0.0,6258.0,1,3,3,choice,3,3,-1,-1.0,6,6,3,3
291,306,w797a1e5,Object,,,0,1,4,choice,3,2,1,-2.0,6,6,3,3
292,307,w797a1e5,Scene,1.0,3779.0,1,2,4,choice,2,3,4,4.0,6,6,2,2
293,308,w797a1e5,Yellow,0.0,4292.0,1,3,4,choice,1,1,-8,-8.0,6,6,1,1
294,309,w797a1e5,Food,0.0,4678.0,0,1,5,choice,2,2,2,2.0,6,6,2,2
295,310,w797a1e5,Blue,1.0,2857.0,1,2,5,choice,1,0,4,4.0,6,6,1,1
296,311,w797a1e5,Animal,1.0,3485.0,0,3,5,choice,3,2,-1,-2.0,6,6,3,3
297,342,we6aff32,Scene,0.0,2439.0,1,1,1,choice,2,2,-3,-4.0,2,2,1,2
298,343,we6aff32,Blue,1.0,2134.0,1,2,1,choice,1,2,5,6.0,2,2,0,1
299,344,we6aff32,Yellow,0.0,3841.0,1,3,1,choice,3,2,-3,-8.0,2,2,2,2
300,345,we6aff32,Yellow,,,0,1,2,choice,2,2,1,1.0,6,6,2,2
301,346,we6aff32,Object,1.0,2771.0,0,2,2,choice,3,3,-1,0.0,6,6,3,3
302,347,we6aff32,Red,1.0,1834.0,0,3,2,choice,1,1,-5,-5.0,6,6,1,1
303,348,we6aff32,Food,1.0,1242.0,0,1,3,choice,2,2,-2,-3.0,4,4,2,2
304,349,we6aff32,Green,1.0,5043.0,0,2,3,choice,1,1,-3,0.0,4,4,1,1
305,350,we6aff32,Animal,1.0,2065.0,0,3,3,choice,3,2,-1,7.0,4,4,2,2
306,351,we6aff32,Scene,0.0,1788.0,0,1,4,choice,3,2,1,4.0,2,2,2,2
307,352,we6aff32,Animal,0.0,1611.0,1,2,4,choice,1,1,-5,0.0,2,2,0,0
308,353,we6aff32,Food,1.0,1286.0,1,3,4,choice,2,2,7,-12.0,2,2,0,0
309,354,we6aff32,Red,0.0,6109.0,1,1,5,choice,3,2,-1,11.0,5,5,2,2
310,355,we6aff32,Green,1.0,1281.0,1,2,5,choice,1,1,9,-4.0,5,5,1,1
311,356,we6aff32,Blue,1.0,2686.0,0,3,5,choice,2,2,-2,6.0,5,5,2,2
312,357,w6b34a8b,Blue,1.0,1843.0,0,1,1,choice,3,8,-3,-9.0,4,4,2,2
313,358,w6b34a8b,Green,0.0,2243.0,1,2,1,choice,2,2,-4,5.0,4,4,1,1
314,359,w6b34a8b,Object,1.0,1184.0,0,3,1,choice,1,4,-4,-5.0,4,4,1,1
315,360,w6b34a8b,Scene,1.0,1909.0,1,1,2,choice,1,1,8,5.0,4,4,1,1
316,361,w6b34a8b,Object,1.0,888.0,0,2,2,choice,3,4,-2,9.0,4,4,2,2
317,362,w6b34a8b,Yellow,0.0,634.0,1,3,2,choice,2,2,-3,-2.0,4,4,2,2
318,363,w6b34a8b,Animal,1.0,910.0,1,1,3,choice,1,1,6,4.0,3,3,0,1
319,364,w6b34a8b,Yellow,0.0,530.0,0,2,3,choice,2,3,4,-10.0,3,3,0,1
320,365,w6b34a8b,Red,0.0,691.0,0,3,3,choice,3,2,1,11.0,3,3,2,3
321,366,w6b34a8b,Red,0.0,1184.0,1,1,4,choice,1,2,-9,-9.0,3,3,1,3
322,367,w6b34a8b,Food,1.0,1196.0,1,2,4,choice,3,2,3,-10.0,3,3,1,1
323,368,w6b34a8b,Scene,1.0,869.0,1,3,4,choice,2,2,2,-8.0,3,3,1,3
324,369,w6b34a8b,Animal,1.0,1014.0,0,1,5,choice,1,2,-4,-2.0,4,4,0,1
325,370,w6b34a8b,Green,0.0,452.0,1,2,5,choice,2,1,-7,4.0,4,4,2,2
326,371,w6b34a8b,Blue,0.0,732.0,1,3,5,choice,3,2,-1,2.0,4,4,1,1
327,372,w3946928,Green,1.0,2740.0,1,1,1,choice,1,1,6,5.0,5,5,1,1
328,373,w3946928,Blue,0.0,2840.0,1,2,1,choice,2,2,-1,-2.0,5,5,2,2
329,374,w3946928,Yellow,0.0,2282.0,1,3,1,choice,3,1,-6,-9.0,5,5,2,2
330,375,w3946928,Animal,1.0,3621.0,1,1,2,choice,1,2,6,-6.0,2,2,1,2
331,376,w3946928,Green,0.0,3437.0,0,2,2,choice,2,1,5,-1.0,2,2,0,1
332,377,w3946928,Red,1.0,1570.0,0,3,2,choice,3,2,-2,-6.0,2,2,2,2
333,378,w3946928,Object,1.0,6639.0,1,1,3,choice,2,1,5,1.0,4,4,1,1
334,379,w3946928,Scene,1.0,1195.0,1,2,3,choice,1,3,4,4.0,4,4,1,1
335,380,w3946928,Food,1.0,1678.0,0,3,3,choice,3,3,-2,-5.0,4,4,2,3
336,381,w3946928,Animal,1.0,1684.0,0,1,4,choice,3,2,-1,-4.0,2,2,1,1
337,382,w3946928,Yellow,0.0,1579.0,1,2,4,choice,1,2,-3,-5.0,2,2,0,0
338,383,w3946928,Scene,1.0,1161.0,0,3,4,choice,2,1,-1,7.0,2,2,1,1
339,384,w3946928,Food,1.0,2482.0,1,1,5,choice,2,0,4,10.0,3,3,0,0
340,385,w3946928,Red,1.0,2320.0,1,2,5,choice,1,1,3,3.0,3,3,1,1
341,386,w3946928,Blue,0.0,820.0,1,3,5,choice,3,1,-1,15.0,3,3,1,1
342,387,w04c1659,Blue,1.0,2806.0,1,1,1,choice,2,3,5,9.0,5,5,2,2
343,388,w04c1659,Red,0.0,4269.0,0,2,1,choice,3,5,3,-1.0,5,5,3,3
344,389,w04c1659,Yellow,0.0,4519.0,1,3,1,choice,1,2,-9,-6.0,5,5,0,0
345,390,w04c1659,Food,0.0,4044.0,0,1,2,choice,3,6,2,17.0,3,3,2,2
346,391,w04c1659,Animal,0.0,5377.0,1,2,2,choice,1,1,-7,5.0,3,3,0,0
347,392,w04c1659,Yellow,1.0,2445.0,0,3,2,choice,2,2,-4,7.0,3,3,1,2
348,393,w04c1659,Green,1.0,3332.0,0,1,3,choice,3,2,-3,10.0,4,4,3,3
349,394,w04c1659,Object,0.0,6681.0,0,2,3,choice,2,3,3,6.0,4,4,1,1
350,395,w04c1659,Scene,1.0,1293.0,0,3,3,choice,1,1,-4,8.0,4,4,1,1
351,396,w04c1659,Food,1.0,2629.0,1,1,4,choice,3,3,2,-5.0,5,5,2,2
352,397,w04c1659,Green,1.0,1582.0,0,2,4,choice,2,2,-2,1.0,5,5,1,1
353,398,w04c1659,Blue,0.0,896.0,0,3,4,choice,1,1,6,-3.0,5,5,1,1
354,399,w04c1659,Animal,1.0,3591.0,1,1,5,choice,3,3,1,3.0,5,5,2,3
355,400,w04c1659,Scene,1.0,5531.0,1,2,5,choice,2,1,4,-2.0,5,5,2,2
356,401,w04c1659,Object,0.0,2423.0,1,3,5,choice,1,2,-7,-4.0,5,5,1,1
357,402,wcbfad8c,Animal,1.0,4051.0,1,1,1,choice,2,2,6,7.0,3,3,2,2
358,403,wcbfad8c,Yellow,0.0,1272.0,1,2,1,choice,3,1,-2,8.0,3,3,1,1
359,404,wcbfad8c,Green,1.0,1735.0,1,3,1,choice,1,2,8,4.0,3,3,0,1
360,405,wcbfad8c,Red,0.0,3122.0,1,1,2,choice,3,2,-2,11.0,5,5,3,3
361,406,wcbfad8c,Blue,1.0,4079.0,0,2,2,choice,2,1,-6,5.0,5,5,1,1
362,407,wcbfad8c,Green,1.0,836.0,1,3,2,choice,1,1,9,9.0,5,5,1,1
363,408,wcbfad8c,Scene,0.0,3733.0,0,1,3,choice,3,1,3,0.0,1,1,1,1
364,409,wcbfad8c,Blue,0.0,3422.0,0,2,3,choice,2,1,5,8.0,1,1,1,2
365,410,wcbfad8c,Food,1.0,2039.0,0,3,3,choice,1,1,-5,4.0,1,1,0,1
366,411,wcbfad8c,Red,1.0,2831.0,1,1,4,choice,1,1,9,9.0,2,2,1,1
367,412,wcbfad8c,Yellow,0.0,1889.0,1,2,4,choice,2,1,-3,2.0,2,2,1,1
368,413,wcbfad8c,Object,1.0,2746.0,0,3,4,choice,3,1,-2,13.0,2,2,1,1
369,414,wcbfad8c,Food,0.0,2362.0,0,1,5,choice,2,1,1,11.0,4,4,2,2
370,415,wcbfad8c,Animal,0.0,5014.0,0,2,5,choice,3,2,1,15.0,4,4,1,1
371,416,wcbfad8c,Scene,1.0,2039.0,0,3,5,choice,1,1,-5,4.0,4,4,1,1
372,417,wab2e8f4,Green,0.0,2689.0,0,1,1,choice,1,2,5,-5.0,2,2,0,0
373,418,wab2e8f4,Object,1.0,4541.0,1,2,1,choice,3,2,4,-6.0,2,2,1,1
374,419,wab2e8f4,Food,1.0,3068.0,1,3,1,choice,2,1,3,15.0,2,2,1,1
375,420,wab2e8f4,Yellow,0.0,1624.0,0,1,2,choice,3,2,1,4.0,5,5,3,3
376,421,wab2e8f4,Blue,1.0,1253.0,1,2,2,choice,2,2,1,15.0,5,5,1,1
377,422,wab2e8f4,Red,0.0,2315.0,1,3,2,choice,1,1,-6,8.0,5,5,1,1
378,423,wab2e8f4,Blue,1.0,2668.0,1,1,3,choice,2,2,1,-10.0,4,4,2,3
379,424,wab2e8f4,Scene,0.0,3749.0,1,2,3,choice,1,2,-3,6.0,4,4,1,2
380,425,wab2e8f4,Animal,1.0,4212.0,1,3,3,choice,3,2,1,-3.0,4,4,1,2
381,426,wab2e8f4,Food,1.0,1773.0,1,1,4,choice,1,1,2,3.0,5,5,1,1
382,427,wab2e8f4,Animal,0.0,2668.0,1,2,4,choice,3,2,-1,-7.0,5,5,2,2
383,428,wab2e8f4,Scene,0.0,1834.0,0,3,4,choice,2,2,2,-9.0,5,5,2,2
384,429,wab2e8f4,Object,0.0,2597.0,1,1,5,choice,1,1,-8,5.0,3,3,0,0
385,430,wab2e8f4,Green,0.0,2649.0,1,2,5,choice,2,3,-1,-8.0,3,3,0,1
386,431,wab2e8f4,Red,1.0,2352.0,1,3,5,choice,3,3,5,12.0,3,3,2,2
387,432,w192a97f,Red,0.0,4222.0,1,1,1,choice,3,4,-4,-25.0,4,4,1,1
388,433,w192a97f,Yellow,1.0,1904.0,0,2,1,choice,2,4,-2,7.0,4,4,2,2
389,434,w192a97f,Green,1.0,1643.0,1,3,1,choice,1,4,8,-3.0,4,4,1,1
390,435,w192a97f,Food,1.0,5246.0,0,1,2,choice,2,2,-4,0.0,5,5,1,1
391,436,w192a97f,Object,0.0,3996.0,1,2,2,choice,3,3,-1,-9.0,5,5,3,3
392,437,w192a97f,Scene,1.0,1338.0,1,3,2,choice,1,2,6,-1.0,5,5,0,1
393,438,w192a97f,Blue,0.0,4836.0,1,1,3,choice,2,2,-7,-11.0,6,6,2,2
394,439,w192a97f,Animal,0.0,5052.0,1,2,3,choice,1,1,-3,3.0,6,6,1,1
395,440,w192a97f,Yellow,1.0,1606.0,0,3,3,choice,3,3,-2,4.0,6,6,3,3
396,441,w192a97f,Animal,0.0,5115.0,1,1,4,choice,2,2,-2,-1.0,5,5,1,1
397,442,w192a97f,Food,1.0,2236.0,0,2,4,choice,1,1,-5,-5.0,5,5,1,2
398,443,w192a97f,Scene,0.0,1669.0,0,3,4,choice,3,3,2,-8.0,5,5,3,3
399,444,w192a97f,Red,,,0,1,5,choice,2,2,-4,-4.0,6,6,2,2
400,445,w192a97f,Green,1.0,236.0,1,2,5,choice,1,1,9,9.0,6,6,1,1
401,446,w192a97f,Blue,0.0,643.0,1,3,5,choice,3,3,-2,-3.0,6,6,3,3
402,447,web7e878,Object,1.0,4337.0,1,1,1,choice,3,4,6,12.0,2,2,1,1
403,448,web7e878,Scene,0.0,5019.0,1,2,1,choice,1,1,-3,-3.0,2,2,0,0
404,449,web7e878,Animal,0.0,7437.0,1,3,1,choice,2,1,-4,-3.0,2,2,1,1
405,450,web7e878,Red,1.0,2539.0,1,1,2,choice,3,1,1,-19.0,2,2,0,0
406,451,web7e878,Yellow,1.0,6014.0,1,2,2,choice,2,1,6,18.0,2,2,1,1
407,452,web7e878,Green,0.0,3044.0,1,3,2,choice,1,2,-6,-3.0,2,2,1,2
408,453,web7e878,Object,0.0,4246.0,1,1,3,choice,1,1,-9,2.0,3,3,1,1
409,454,web7e878,Blue,1.0,1538.0,0,2,3,choice,2,1,-2,0.0,3,3,1,1
410,455,web7e878,Green,1.0,3599.0,1,3,3,choice,3,3,2,10.0,3,3,2,3
411,456,web7e878,Blue,0.0,3741.0,1,1,4,choice,2,2,-1,-11.0,3,3,1,1
412,457,web7e878,Food,1.0,3996.0,0,2,4,choice,1,1,-5,6.0,3,3,1,1
413,458,web7e878,Yellow,1.0,975.0,1,3,4,choice,3,2,2,17.0,3,3,2,2
414,459,web7e878,Red,0.0,2290.0,1,1,5,choice,1,1,-4,-6.0,2,2,0,0
415,460,web7e878,Scene,1.0,921.0,1,2,5,choice,2,3,2,17.0,2,2,2,3
416,461,web7e878,Food,0.0,1363.0,1,3,5,choice,3,2,-3,-4.0,2,2,0,0
417,462,wf1ea1db,Blue,1.0,4715.0,1,1,1,choice,1,3,6,5.0,1,1,0,0
418,463,wf1ea1db,Yellow,0.0,1082.0,1,2,1,choice,3,6,-4,-10.0,1,1,1,1
419,464,wf1ea1db,Green,0.0,4449.0,0,3,1,choice,2,3,1,-10.0,1,1,0,0
420,465,wf1ea1db,Scene,1.0,2313.0,1,1,5,choice,1,3,4,2.0,1,1,1,1
421,466,wf1ea1db,Animal,0.0,1631.0,1,2,5,choice,2,3,-4,-2.0,1,1,0,0
422,467,wf1ea1db,Red,1.0,2127.0,1,3,5,choice,3,2,3,10.0,1,1,1,1
423,474,w2d4c98d,Blue,,,0,1,1,choice,1,3,9,0.0,6,6,1,1
424,475,w2d4c98d,Object,1.0,4021.0,0,2,1,choice,3,4,-1,0.0,6,6,3,3
425,476,w2d4c98d,Red,0.0,6582.0,1,3,1,choice,2,4,-2,0.0,6,6,2,2
426,477,w2d4c98d,Animal,1.0,3088.0,1,1,2,choice,1,4,4,4.0,6,6,1,1
427,478,w2d4c98d,Blue,1.0,4275.0,1,2,2,choice,3,4,2,18.0,6,6,2,2
428,479,w2d4c98d,Scene,0.0,2460.0,1,3,2,choice,2,4,-1,-1.0,6,6,2,2
429,480,w2d4c98d,Green,0.0,5221.0,1,1,3,choice,1,3,-5,-5.0,6,6,1,1
430,481,w2d4c98d,Animal,1.0,3661.0,1,2,3,choice,2,4,6,6.0,6,6,2,2
431,482,w2d4c98d,Yellow,1.0,2194.0,1,3,3,choice,3,4,3,3.0,6,6,3,3
432,483,w2d4c98d,Yellow,1.0,3984.0,0,1,4,choice,2,4,-5,-5.0,6,6,2,2
433,484,w2d4c98d,Red,0.0,5507.0,1,2,4,choice,3,4,-1,-1.0,6,6,3,3
434,485,w2d4c98d,Food,0.0,3802.0,1,3,4,choice,1,3,-2,-2.0,6,6,1,1
435,486,w2d4c98d,Scene,0.0,5503.0,1,1,5,choice,3,4,-1,-1.0,6,6,3,3
436,487,w2d4c98d,Object,1.0,7059.0,1,2,5,choice,1,4,6,8.0,6,6,1,1
437,488,w2d4c98d,Food,0.0,4758.0,1,3,5,choice,2,4,-8,-7.0,6,6,2,2
438,504,w608e33c,Scene,1.0,5527.0,1,1,1,choice,1,2,7,-7.0,4,4,1,2
439,505,w608e33c,Animal,1.0,5267.0,0,2,1,choice,2,2,-4,0.0,4,4,1,1
440,506,w608e33c,Red,0.0,4104.0,1,3,1,choice,3,3,-2,-4.0,4,4,2,2
441,507,w608e33c,Green,,,0,1,2,choice,2,2,8,8.0,6,6,2,2
442,508,w608e33c,Food,0.0,3716.0,1,2,2,choice,3,3,-4,11.0,6,6,3,3
443,509,w608e33c,Object,0.0,2431.0,0,3,2,choice,1,1,5,-5.0,6,6,1,1
444,510,w608e33c,Food,1.0,2764.0,1,1,3,choice,1,2,8,8.0,5,5,1,1
445,511,w608e33c,Animal,0.0,2877.0,1,2,3,choice,3,2,-3,-11.0,5,5,2,2
446,512,w608e33c,Red,0.0,3069.0,1,3,3,choice,2,2,-2,-2.0,5,5,2,2
447,513,w608e33c,Green,0.0,4926.0,0,1,4,choice,1,1,3,3.0,4,4,1,2
448,514,w608e33c,Scene,1.0,2355.0,0,2,4,choice,2,3,-3,-4.0,4,4,2,3
449,515,w608e33c,Blue,1.0,1669.0,0,3,4,choice,3,2,-1,7.0,4,4,2,2
450,516,w608e33c,Yellow,1.0,4292.0,1,1,5,choice,3,2,1,-26.0,5,5,2,2
451,517,w608e33c,Object,1.0,4539.0,1,2,5,choice,2,1,5,-3.0,5,5,2,2
452,518,w608e33c,Blue,0.0,2562.0,1,3,5,choice,1,1,-5,-5.0,5,5,1,1
453,519,w91e953e,Animal,1.0,2480.0,0,1,1,choice,1,3,-5,-5.0,4,4,1,1
454,520,w91e953e,Scene,1.0,1517.0,0,2,1,choice,2,3,-2,3.0,4,4,1,2
455,521,w91e953e,Food,0.0,1439.0,0,3,1,choice,3,3,4,-2.0,4,4,2,2
456,522,w91e953e,Red,0.0,5383.0,1,1,2,choice,3,2,-1,2.0,4,4,2,2
457,523,w91e953e,Object,0.0,7141.0,1,2,2,choice,1,1,-2,-2.0,4,4,0,0
458,524,w91e953e,Green,1.0,2389.0,1,3,2,choice,2,2,1,10.0,4,4,2,2
459,525,w91e953e,Yellow,0.0,4455.0,0,1,3,choice,2,2,4,4.0,5,5,2,2
460,526,w91e953e,Food,1.0,5321.0,0,2,3,choice,1,2,-7,-7.0,5,5,1,1
461,527,w91e953e,Blue,0.0,747.0,0,3,3,choice,3,2,2,-15.0,5,5,2,2
462,528,w91e953e,Blue,0.0,2997.0,1,1,4,choice,1,1,-3,-3.0,6,6,1,1
463,529,w91e953e,Green,0.0,3481.0,0,2,4,choice,3,3,3,3.0,6,6,3,3
464,530,w91e953e,Yellow,1.0,3744.0,1,3,4,choice,2,2,3,3.0,6,6,2,2
465,531,w91e953e,Object,1.0,4395.0,1,1,5,choice,3,3,2,2.0,6,6,3,3
466,532,w91e953e,Red,1.0,3688.0,1,2,5,choice,2,2,1,1.0,6,6,2,2
467,533,w91e953e,Animal,0.0,4190.0,1,3,5,choice,1,1,-5,-5.0,6,6,1,1
468,534,w8ad52eb,Red,0.0,6882.0,0,1,1,choice,3,2,4,4.0,5,5,2,2
469,535,w8ad52eb,Blue,1.0,4156.0,0,2,1,choice,1,2,-8,-8.0,5,5,1,2
470,536,w8ad52eb,Animal,0.0,2316.0,1,3,1,choice,2,2,-4,-6.0,5,5,1,2
471,537,w8ad52eb,Green,1.0,4349.0,1,1,2,choice,1,1,3,0.0,4,4,1,2
472,538,w8ad52eb,Scene,1.0,4473.0,1,2,2,choice,3,3,1,-4.0,4,4,2,3
473,539,w8ad52eb,Object,0.0,3902.0,0,3,2,choice,2,1,1,4.0,4,4,1,1
474,540,w8ad52eb,Yellow,1.0,3087.0,0,1,3,choice,3,1,-1,4.0,2,2,2,3
475,541,w8ad52eb,Red,0.0,1958.0,1,2,3,choice,2,0,-2,4.0,2,2,0,0
476,542,w8ad52eb,Food,,,0,3,3,choice,1,1,-2,-2.0,2,2,1,1
477,543,w8ad52eb,Scene,1.0,4131.0,0,1,4,choice,1,1,-7,0.0,2,2,0,0
478,544,w8ad52eb,Object,0.0,6278.0,0,2,4,choice,3,1,2,8.0,2,2,1,1
479,545,w8ad52eb,Blue,1.0,6015.0,0,3,4,choice,2,0,-4,8.0,2,2,0,0
480,546,w8ad52eb,Animal,1.0,2293.0,1,1,5,choice,1,0,9,-3.0,1,1,0,1
481,547,w8ad52eb,Yellow,0.0,6379.0,1,2,5,choice,3,1,-2,-8.0,1,1,0,0
482,548,w8ad52eb,Food,0.0,3417.0,1,3,5,choice,2,1,-2,-2.0,1,1,0,0
483,549,w13816ba,Object,0.0,7455.0,1,1,1,choice,1,1,-9,-9.0,6,6,1,1
484,550,w13816ba,Scene,1.0,1830.0,1,2,1,choice,3,3,3,5.0,6,6,3,3
485,551,w13816ba,Food,1.0,1485.0,1,3,1,choice,2,2,3,3.0,6,6,2,2
486,552,w13816ba,Object,1.0,4550.0,0,1,2,choice,3,1,-1,-2.0,5,5,2,2
487,553,w13816ba,Blue,0.0,4561.0,0,2,2,choice,1,0,8,9.0,5,5,1,1
488,554,w13816ba,Food,0.0,2408.0,1,3,2,choice,2,1,-5,-8.0,5,5,2,2
489,555,w13816ba,Animal,0.0,3655.0,1,1,3,choice,2,0,-5,-4.0,5,5,2,2
490,556,w13816ba,Yellow,1.0,5307.0,0,2,3,choice,3,2,-2,0.0,5,5,3,3
491,557,w13816ba,Red,1.0,3139.0,1,3,3,choice,1,1,9,9.0,5,5,1,1
492,558,w13816ba,Blue,1.0,5770.0,1,1,4,choice,3,1,1,-3.0,6,6,3,3
493,559,w13816ba,Yellow,1.0,4457.0,1,2,4,choice,2,2,3,4.0,6,6,2,2
494,560,w13816ba,Red,1.0,3379.0,0,3,4,choice,1,0,-3,3.0,6,6,1,1
495,561,w13816ba,Green,1.0,4099.0,1,1,5,choice,3,2,5,6.0,4,4,2,2
496,562,w13816ba,Animal,1.0,6026.0,1,2,5,choice,1,1,7,9.0,4,4,1,1
497,563,w13816ba,Scene,0.0,6109.0,1,3,5,choice,2,2,-6,-5.0,4,4,1,1
498,564,w5ef243f,Object,,,0,1,1,choice,2,2,5,3.0,5,5,1,1
499,565,w5ef243f,Red,1.0,2870.0,0,2,1,choice,1,1,-7,6.0,5,5,1,1
500,566,w5ef243f,Yellow,0.0,3378.0,0,3,1,choice,3,3,1,-7.0,5,5,3,3
501,567,w5ef243f,Red,1.0,4437.0,0,1,2,choice,3,3,-4,-9.0,5,5,2,3
502,568,w5ef243f,Object,0.0,3691.0,0,2,2,choice,2,1,2,-14.0,5,5,1,1
503,569,w5ef243f,Animal,1.0,3986.0,0,3,2,choice,1,1,-5,-9.0,5,5,1,1
504,570,w5ef243f,Green,1.0,1702.0,0,1,3,choice,3,3,-3,21.0,5,5,2,2
505,571,w5ef243f,Blue,1.0,2935.0,1,2,3,choice,1,1,5,7.0,5,5,1,1
506,572,w5ef243f,Scene,1.0,2007.0,1,3,3,choice,2,2,2,5.0,5,5,2,2
507,573,w5ef243f,Food,1.0,2985.0,1,1,4,choice,1,2,9,3.0,2,2,1,2
508,574,w5ef243f,Yellow,0.0,2262.0,1,2,4,choice,3,1,-2,7.0,2,2,1,1
509,575,w5ef243f,Green,0.0,3526.0,1,3,4,choice,2,1,-1,5.0,2,2,1,1
510,576,w5ef243f,Scene,0.0,2532.0,0,1,5,choice,3,2,4,-9.0,4,4,2,2
511,577,w5ef243f,Food,1.0,2539.0,0,2,5,choice,1,1,-2,-2.0,4,4,1,1
512,578,w5ef243f,Blue,1.0,1482.0,1,3,5,choice,2,2,3,2.0,4,4,2,2
513,579,wfdd68c1,Green,0.0,4579.0,0,1,1,choice,2,2,1,0.0,4,4,1,2
514,580,wfdd68c1,Yellow,1.0,1572.0,0,2,1,choice,1,4,-8,6.0,4,4,1,2
515,581,wfdd68c1,Blue,1.0,786.0,1,3,1,choice,3,2,2,5.0,4,4,2,2
516,582,wfdd68c1,Object,,,0,1,2,choice,3,2,-2,-4.0,6,6,3,3
517,583,wfdd68c1,Red,1.0,2288.0,0,2,2,choice,1,1,-3,-3.0,6,6,1,1
518,584,wfdd68c1,Scene,0.0,2832.0,1,3,2,choice,2,2,-3,-1.0,6,6,2,2
519,585,wfdd68c1,Food,0.0,4160.0,1,1,3,choice,2,2,-6,-5.0,5,5,0,0
520,586,wfdd68c1,Object,1.0,3317.0,1,2,3,choice,1,1,6,6.0,5,5,1,2
521,587,wfdd68c1,Scene,0.0,3519.0,1,3,3,choice,3,3,-1,-12.0,5,5,3,3
522,588,wfdd68c1,Green,0.0,3857.0,1,1,4,choice,2,2,-3,-1.0,6,6,2,2
523,589,wfdd68c1,Animal,1.0,3475.0,0,2,4,choice,3,1,-3,-1.0,6,6,3,3
524,590,wfdd68c1,Yellow,1.0,2503.0,0,3,4,choice,1,2,-4,-4.0,6,6,1,1
525,591,wfdd68c1,Food,1.0,2637.0,0,1,5,choice,1,1,-5,-4.0,5,5,1,1
526,592,wfdd68c1,Red,1.0,3014.0,0,2,5,choice,3,2,-3,-3.0,5,5,2,2
527,593,wfdd68c1,Blue,0.0,2228.0,0,3,5,choice,2,2,2,2.0,5,5,2,2
528,606,w2b9a138,Scene,1.0,2784.0,1,1,1,choice,2,2,4,13.0,5,5,2,2
529,607,w2b9a138,Animal,1.0,2421.0,1,2,1,choice,1,1,8,6.0,5,5,1,1
530,608,w2b9a138,Object,0.0,992.0,1,3,1,choice,3,3,-1,-5.0,5,5,2,2
531,609,w2b9a138,Red,1.0,2105.0,1,1,2,choice,3,2,1,-3.0,5,5,2,2
532,610,w2b9a138,Blue,0.0,2656.0,1,2,2,choice,1,1,-9,-6.0,5,5,1,1
533,611,w2b9a138,Green,1.0,1758.0,0,3,2,choice,2,3,-3,3.0,5,5,2,2
534,612,w2b9a138,Yellow,0.0,3138.0,1,1,3,choice,3,3,-5,3.0,5,5,3,3
535,613,w2b9a138,Scene,1.0,1710.0,1,2,3,choice,1,1,9,9.0,5,5,1,1
536,614,w2b9a138,Food,0.0,2973.0,1,3,3,choice,2,3,-3,-1.0,5,5,2,3
537,615,w2b9a138,Food,0.0,1814.0,1,1,4,choice,3,2,-3,-8.0,3,3,1,1
538,616,w2b9a138,Blue,1.0,2040.0,1,2,4,choice,2,2,6,4.0,3,3,1,1
539,617,w2b9a138,Object,1.0,1686.0,1,3,4,choice,1,1,4,5.0,3,3,0,0
540,618,w2b9a138,Green,0.0,2351.0,1,1,5,choice,1,1,-5,-6.0,1,1,1,1
541,619,w2b9a138,Animal,1.0,3211.0,1,2,5,choice,3,3,1,3.0,1,1,1,2
542,620,w2b9a138,Yellow,1.0,1934.0,0,3,5,choice,2,2,-4,7.0,1,1,0,0
543,621,wd887970,Scene,0.0,6233.0,1,1,1,choice,2,2,-5,-4.0,3,3,1,1
544,622,wd887970,Green,1.0,3560.0,0,2,1,choice,1,2,-2,2.0,3,3,0,0
545,623,wd887970,Food,1.0,4687.0,0,3,1,choice,3,1,-1,14.0,3,3,1,1
546,624,wd887970,Blue,1.0,4232.0,1,1,2,choice,2,2,5,0.0,4,4,2,2
547,625,wd887970,Animal,1.0,6017.0,0,2,2,choice,3,2,-1,2.0,4,4,2,2
548,626,wd887970,Scene,1.0,3234.0,1,3,2,choice,1,1,8,7.0,4,4,1,1
549,627,wd887970,Yellow,0.0,5943.0,0,1,3,choice,1,2,7,2.0,5,5,1,2
550,628,wd887970,Blue,1.0,4308.0,0,2,3,choice,3,3,-1,0.0,5,5,3,3
551,629,wd887970,Red,1.0,2923.0,0,3,3,choice,2,1,-7,-4.0,5,5,1,1
552,630,wd887970,Green,1.0,6545.0,1,1,4,choice,3,3,1,5.0,5,5,3,3
553,631,wd887970,Red,0.0,6162.0,1,2,4,choice,1,0,-4,-3.0,5,5,0,0
554,632,wd887970,Yellow,1.0,5048.0,0,3,4,choice,2,2,-1,-1.0,5,5,2,2
555,633,wd887970,Object,1.0,4809.0,0,1,5,choice,3,3,-1,-2.0,6,6,3,3
556,634,wd887970,Food,0.0,5643.0,1,2,5,choice,2,2,-3,4.0,6,6,2,2
557,635,wd887970,Animal,1.0,3288.0,1,3,5,choice,1,1,7,7.0,6,6,1,1
558,636,w4b34871,Object,1.0,2868.0,1,1,1,choice,3,9,1,3.0,5,5,2,2
559,637,w4b34871,Food,0.0,2958.0,1,2,1,choice,1,1,-8,-3.0,5,5,1,2
560,638,w4b34871,Blue,1.0,1634.0,1,3,1,choice,2,1,1,3.0,5,5,2,2
561,639,w4b34871,Object,,,0,1,2,choice,3,1,-2,2.0,3,3,1,1
562,640,w4b34871,Animal,0.0,3614.0,1,2,2,choice,2,1,-6,-6.0,3,3,1,1
563,641,w4b34871,Scene,1.0,1352.0,1,3,2,choice,1,1,3,5.0,3,3,1,1
564,642,w4b34871,Yellow,1.0,2550.0,0,1,3,choice,3,2,-1,-3.0,2,2,2,2
565,643,w4b34871,Red,0.0,1121.0,0,2,3,choice,1,0,5,1.0,2,2,0,0
566,644,w4b34871,Food,1.0,1697.0,1,3,3,choice,2,1,3,-2.0,2,2,1,1
567,645,w4b34871,Green,0.0,2167.0,1,1,4,choice,2,1,-6,4.0,1,1,1,1
568,646,w4b34871,Animal,1.0,1722.0,0,2,4,choice,1,0,-4,4.0,1,1,0,0
569,647,w4b34871,Red,1.0,1220.0,0,3,4,choice,3,1,-3,9.0,1,1,0,0
570,648,w4b34871,Blue,0.0,3426.0,0,1,5,choice,1,1,6,-4.0,3,3,1,1
571,649,w4b34871,Yellow,1.0,1842.0,0,2,5,choice,3,2,-2,1.0,3,3,2,2
572,650,w4b34871,Green,0.0,1453.0,1,3,5,choice,2,0,-7,6.0,3,3,0,0
573,651,w29215b1,Scene,,,0,1,1,choice,1,2,-5,4.0,3,3,1,2
574,652,w29215b1,Blue,1.0,3867.0,0,2,1,choice,2,3,-5,6.0,3,3,1,2
575,653,w29215b1,Yellow,0.0,2980.0,1,3,1,choice,3,1,-2,-4.0,3,3,2,2
576,654,w29215b1,Scene,,,0,1,2,choice,2,3,-2,-8.0,2,2,1,1
577,655,w29215b1,Animal,0.0,4714.0,0,2,2,choice,3,3,2,-9.0,2,2,1,1
578,656,w29215b1,Yellow,0.0,3722.0,0,3,2,choice,1,2,3,2.0,2,2,0,1
579,657,w29215b1,Object,1.0,5226.0,0,1,3,choice,3,4,-2,-15.0,4,4,2,2
580,658,w29215b1,Red,0.0,5687.0,0,2,3,choice,1,3,8,-8.0,4,4,1,2
581,659,w29215b1,Green,1.0,2254.0,0,3,3,choice,2,3,-5,-2.0,4,4,2,2
582,660,w29215b1,Blue,0.0,5460.0,0,1,4,choice,2,4,8,-7.0,6,6,2,2
583,661,w29215b1,Red,1.0,5873.0,0,2,4,choice,1,4,-6,9.0,6,6,1,1
584,662,w29215b1,Green,0.0,3910.0,0,3,4,choice,3,4,2,-16.0,6,6,3,3
585,663,w29215b1,Object,1.0,3957.0,0,1,5,choice,1,4,-5,-5.0,3,3,1,1
586,664,w29215b1,Animal,0.0,3987.0,0,2,5,choice,3,4,3,-7.0,3,3,1,1
587,665,w29215b1,Food,1.0,3875.0,0,3,5,choice,2,4,-1,-14.0,3,3,1,1
588,666,wf9cb312,Yellow,1.0,3647.0,1,1,1,choice,1,1,5,5.0,5,5,1,1
589,667,wf9cb312,Scene,1.0,3075.0,1,2,1,choice,3,6,3,3.0,5,5,3,4
590,668,wf9cb312,Green,0.0,999.0,1,3,1,choice,2,2,-1,-1.0,5,5,2,2
591,669,wf9cb312,Yellow,0.0,1195.0,1,1,2,choice,3,3,-6,1.0,5,5,3,3
592,670,wf9cb312,Red,1.0,878.0,1,2,2,choice,1,2,6,9.0,5,5,1,2
593,671,wf9cb312,Blue,0.0,2284.0,0,3,2,choice,2,2,1,2.0,5,5,1,1
594,672,wf9cb312,Blue,1.0,3090.0,0,1,3,choice,3,3,-1,-8.0,5,5,3,3
595,673,wf9cb312,Green,0.0,1265.0,1,2,3,choice,2,2,-5,-10.0,5,5,1,1
596,674,wf9cb312,Object,0.0,6052.0,0,3,3,choice,1,2,4,-2.0,5,5,1,1
597,675,wf9cb312,Animal,0.0,1195.0,1,1,4,choice,3,3,-4,-9.0,4,4,2,2
598,676,wf9cb312,Scene,0.0,2252.0,0,2,4,choice,1,2,9,7.0,4,4,1,2
599,677,wf9cb312,Food,1.0,2408.0,0,3,4,choice,2,1,-1,7.0,4,4,1,1
600,678,wf9cb312,Animal,0.0,1447.0,1,1,5,choice,2,2,-1,3.0,4,4,1,2
601,679,wf9cb312,Red,0.0,6231.0,0,2,5,choice,1,2,4,-2.0,4,4,1,3
602,680,wf9cb312,Object,1.0,2895.0,1,3,5,choice,3,3,2,-10.0,4,4,2,2
603,681,w2f45fb6,Food,,,0,1,1,choice,1,0,-8,0.0,3,3,0,0
604,682,w2f45fb6,Blue,0.0,4364.0,1,2,1,choice,2,2,-3,0.0,3,3,2,2
605,683,w2f45fb6,Green,1.0,2550.0,0,3,1,choice,3,3,-3,9.0,3,3,1,1
606,684,w2f45fb6,Scene,0.0,5349.0,1,1,2,choice,1,1,-2,-1.0,5,5,1,1
607,685,w2f45fb6,Yellow,0.0,3731.0,1,2,2,choice,3,2,-1,-9.0,5,5,2,2
608,686,w2f45fb6,Blue,1.0,3772.0,1,3,2,choice,2,2,2,4.0,5,5,2,2
609,687,w2f45fb6,Animal,1.0,5820.0,1,1,3,choice,2,2,1,2.0,6,6,2,2
610,688,w2f45fb6,Green,0.0,4706.0,1,2,3,choice,3,3,-1,0.0,6,6,3,3
611,689,w2f45fb6,Object,1.0,5094.0,1,3,3,choice,1,1,9,9.0,6,6,1,1
612,690,w2f45fb6,Scene,,,0,1,4,choice,3,2,-3,-4.0,6,6,3,3
613,691,w2f45fb6,Animal,1.0,4171.0,1,2,4,choice,1,1,6,6.0,6,6,1,1
614,692,w2f45fb6,Yellow,0.0,3914.0,1,3,4,choice,2,2,-3,-3.0,6,6,2,2
615,693,w2f45fb6,Object,0.0,3697.0,1,1,5,choice,3,3,-3,-4.0,6,6,3,3
616,694,w2f45fb6,Red,1.0,2546.0,1,2,5,choice,2,2,6,4.0,6,6,2,2
617,695,w2f45fb6,Food,1.0,3846.0,1,3,5,choice,1,1,7,6.0,6,6,1,1
618,696,wdabae0a,Scene,1.0,5155.0,0,1,1,choice,1,2,-2,6.0,4,4,1,2
619,697,wdabae0a,Animal,1.0,5148.0,1,2,1,choice,2,2,4,13.0,4,4,1,2
620,698,wdabae0a,Food,0.0,3788.0,0,3,1,choice,3,7,2,8.0,4,4,2,2
621,699,wdabae0a,Object,0.0,3824.0,1,1,2,choice,2,2,-4,13.0,5,5,2,2
622,700,wdabae0a,Blue,1.0,2045.0,1,2,2,choice,3,2,1,-1.0,5,5,3,3
623,701,wdabae0a,Red,1.0,1752.0,0,3,2,choice,1,1,-6,-6.0,5,5,1,2
624,702,wdabae0a,Yellow,1.0,4867.0,0,1,3,choice,3,2,-4,15.0,3,3,1,1
625,703,wdabae0a,Red,0.0,1424.0,1,2,3,choice,2,2,-7,-8.0,3,3,1,2
626,704,wdabae0a,Green,0.0,2393.0,0,3,3,choice,1,2,4,4.0,3,3,1,2
627,705,wdabae0a,Object,1.0,5423.0,0,1,4,choice,1,0,-3,-5.0,5,5,1,1
628,706,wdabae0a,Scene,0.0,2047.0,0,2,4,choice,2,1,5,15.0,5,5,2,2
629,707,wdabae0a,Yellow,0.0,2098.0,1,3,4,choice,3,3,-1,-4.0,5,5,3,3
630,708,wdabae0a,Animal,1.0,2171.0,0,1,5,choice,2,2,-1,-1.0,1,1,0,0
631,709,wdabae0a,Food,0.0,3367.0,1,2,5,choice,1,1,-7,-1.0,1,1,0,1
632,710,wdabae0a,Green,1.0,1703.0,1,3,5,choice,3,1,1,6.0,1,1,0,1
633,711,w65ed633,Scene,1.0,6265.0,1,1,1,choice,1,1,6,6.0,5,5,1,1
634,712,w65ed633,Yellow,0.0,4438.0,0,2,1,choice,3,3,4,4.0,5,5,3,4
635,713,w65ed633,Object,0.0,6744.0,1,3,1,choice,2,1,-8,-8.0,5,5,2,2
636,714,w65ed633,Green,0.0,5256.0,0,1,2,choice,1,1,3,-2.0,5,5,1,1
637,715,w65ed633,Food,1.0,5361.0,1,2,2,choice,2,2,7,15.0,5,5,2,2
638,716,w65ed633,Scene,1.0,5398.0,1,3,2,choice,3,2,2,-3.0,5,5,2,2
639,717,w65ed633,Object,1.0,6084.0,0,1,3,choice,2,1,-1,-1.0,6,6,2,2
640,718,w65ed633,Red,0.0,2268.0,1,2,3,choice,3,3,-2,-2.0,6,6,3,3
641,719,w65ed633,Blue,1.0,1940.0,1,3,3,choice,1,1,4,4.0,6,6,1,1
642,720,w65ed633,Blue,0.0,5961.0,1,1,4,choice,1,1,-7,9.0,6,6,1,1
643,721,w65ed633,Red,,,0,2,4,choice,2,2,3,-13.0,6,6,2,2
644,722,w65ed633,Green,1.0,1957.0,1,3,4,choice,3,2,2,2.0,6,6,3,3
645,723,w65ed633,Food,1.0,7159.0,1,1,5,choice,2,2,1,1.0,6,6,2,2
646,724,w65ed633,Yellow,1.0,4669.0,1,2,5,choice,1,1,3,3.0,6,6,1,1
647,725,w65ed633,Animal,1.0,3992.0,1,3,5,choice,3,2,1,3.0,6,6,3,3
648,726,wcabe93e,Food,1.0,6592.0,1,1,1,choice,3,3,2,15.0,5,5,3,3
649,727,wcabe93e,Red,1.0,6067.0,0,2,1,choice,2,2,-1,0.0,5,5,2,2
650,728,wcabe93e,Green,1.0,5322.0,1,3,1,choice,1,1,5,6.0,5,5,1,1
651,729,wcabe93e,Blue,1.0,1849.0,1,1,2,choice,2,1,6,6.0,5,5,2,2
652,730,wcabe93e,Green,1.0,1369.0,1,2,2,choice,3,2,3,7.0,5,5,2,2
653,731,wcabe93e,Scene,1.0,3290.0,1,3,2,choice,1,1,4,6.0,5,5,1,1
654,732,wcabe93e,Scene,1.0,4263.0,0,1,3,choice,3,3,-4,7.0,5,5,3,3
655,733,wcabe93e,Yellow,0.0,5439.0,1,2,3,choice,2,2,-7,4.0,5,5,2,2
656,734,wcabe93e,Object,0.0,5424.0,0,3,3,choice,1,1,6,6.0,5,5,0,0
657,735,wcabe93e,Object,1.0,2895.0,1,1,4,choice,3,2,1,1.0,4,4,2,2
658,736,wcabe93e,Animal,1.0,5253.0,0,2,4,choice,1,1,-8,4.0,4,4,1,1
659,737,wcabe93e,Blue,1.0,4556.0,0,3,4,choice,2,2,-5,-3.0,4,4,2,2
660,738,wcabe93e,Animal,1.0,2446.0,0,1,5,choice,3,2,-2,9.0,3,3,2,2
661,739,wcabe93e,Yellow,1.0,2253.0,1,2,5,choice,1,1,7,7.0,3,3,1,1
662,740,wcabe93e,Food,0.0,4412.0,1,3,5,choice,2,2,-2,4.0,3,3,1,1
663,741,w950a999,Object,1.0,4088.0,0,1,1,choice,2,2,-5,0.0,5,5,1,1
664,742,w950a999,Animal,1.0,3269.0,1,2,1,choice,1,2,9,0.0,5,5,1,2
665,743,w950a999,Red,0.0,1075.0,1,3,1,choice,3,3,-4,-5.0,5,5,3,3
666,744,w950a999,Yellow,1.0,4825.0,0,1,2,choice,1,2,-3,0.0,3,3,1,2
667,745,w950a999,Food,0.0,1166.0,1,2,2,choice,2,2,-1,-8.0,3,3,1,1
668,746,w950a999,Scene,1.0,3526.0,0,3,2,choice,3,3,-2,-5.0,3,3,2,3
669,747,w950a999,Object,0.0,2196.0,1,1,3,choice,3,2,-1,-6.0,4,4,2,2
670,748,w950a999,Food,0.0,5641.0,0,2,3,choice,1,2,5,0.0,4,4,1,3
671,749,w950a999,Animal,1.0,1489.0,1,3,3,choice,2,2,3,-6.0,4,4,1,1
672,750,w950a999,Green,1.0,4980.0,0,1,4,choice,1,2,-5,-2.0,5,5,1,1
673,751,w950a999,Red,0.0,3018.0,1,2,4,choice,2,2,-1,0.0,5,5,2,2
674,752,w950a999,Blue,1.0,939.0,1,3,4,choice,3,2,2,-12.0,5,5,2,2
675,753,w950a999,Yellow,1.0,5006.0,0,1,5,choice,1,1,-4,0.0,4,4,1,1
676,754,w950a999,Blue,0.0,1331.0,0,2,5,choice,2,2,2,-4.0,4,4,1,2
677,755,w950a999,Green,1.0,1001.0,1,3,5,choice,3,2,1,-4.0,4,4,2,2
678,771,w2fdc513,Animal,0.0,5128.0,1,1,1,choice,3,3,-5,-12.0,3,3,1,1
679,772,w2fdc513,Red,0.0,2016.0,0,2,1,choice,1,2,8,-3.0,3,3,1,1
680,773,w2fdc513,Scene,1.0,846.0,0,3,1,choice,2,3,-1,7.0,3,3,1,1
681,774,w2fdc513,Green,1.0,3544.0,1,1,2,choice,2,2,7,9.0,4,4,2,2
682,775,w2fdc513,Yellow,1.0,3133.0,0,2,2,choice,1,1,-3,3.0,4,4,0,0
683,776,w2fdc513,Food,0.0,2591.0,1,3,2,choice,3,4,-1,10.0,4,4,2,2
684,777,w2fdc513,Blue,1.0,3320.0,1,1,3,choice,2,2,6,3.0,5,5,1,1
685,778,w2fdc513,Yellow,1.0,5714.0,1,2,3,choice,3,2,1,4.0,5,5,3,3
686,779,w2fdc513,Object,1.0,5555.0,0,3,3,choice,1,0,-6,-8.0,5,5,1,1
687,780,w2fdc513,Animal,0.0,2920.0,1,1,4,choice,1,1,-8,-8.0,4,4,1,1
688,781,w2fdc513,Red,0.0,2245.0,0,2,4,choice,3,3,2,-3.0,4,4,2,2
689,782,w2fdc513,Blue,1.0,727.0,1,3,4,choice,2,0,4,2.0,4,4,2,2
690,783,w2fdc513,Scene,1.0,2838.0,0,1,5,choice,1,3,-7,6.0,2,2,0,2
691,784,w2fdc513,Green,1.0,1284.0,1,2,5,choice,3,2,3,15.0,2,2,2,2
692,785,w2fdc513,Food,0.0,2863.0,1,3,5,choice,2,2,-1,1.0,2,2,1,1
693,786,w0a90f7a,Animal,0.0,2530.0,0,1,1,choice,2,2,2,-2.0,2,2,1,1
694,787,w0a90f7a,Food,1.0,6755.0,0,2,1,choice,1,2,-3,5.0,2,2,0,2
695,788,w0a90f7a,Object,0.0,761.0,0,3,1,choice,3,2,4,4.0,2,2,1,2
696,789,w0a90f7a,Scene,1.0,2287.0,1,1,2,choice,2,2,5,13.0,5,5,2,2
697,790,w0a90f7a,Red,1.0,3065.0,0,2,2,choice,3,2,-6,10.0,5,5,2,2
698,791,w0a90f7a,Blue,0.0,2427.0,0,3,2,choice,1,1,6,-6.0,5,5,1,1
699,792,w0a90f7a,Red,1.0,3382.0,1,1,3,choice,3,2,6,-9.0,2,2,2,3
700,793,w0a90f7a,Green,0.0,833.0,1,2,3,choice,2,2,-1,9.0,2,2,0,1
701,794,w0a90f7a,Animal,0.0,3298.0,0,3,3,choice,1,1,8,6.0,2,2,1,1
702,795,w0a90f7a,Yellow,0.0,3252.0,1,1,4,choice,2,2,-2,1.0,5,5,2,2
703,796,w0a90f7a,Food,1.0,1111.0,0,2,4,choice,1,2,-2,-2.0,5,5,1,1
704,797,w0a90f7a,Green,1.0,2990.0,0,3,4,choice,3,3,-1,8.0,5,5,2,2
705,798,w0a90f7a,Blue,,,0,1,5,choice,2,2,3,12.0,1,1,0,0
706,799,w0a90f7a,Object,1.0,3627.0,1,2,5,choice,1,1,8,-4.0,1,1,1,3
707,800,w0a90f7a,Yellow,1.0,2235.0,0,3,5,choice,3,2,-3,4.0,1,1,1,2
708,801,w1ad74ca,Food,1.0,6430.0,1,1,1,choice,3,2,4,3.0,5,5,3,3
709,802,w1ad74ca,Blue,1.0,4511.0,1,2,1,choice,2,2,2,0.0,5,5,2,2
710,803,w1ad74ca,Animal,0.0,7177.0,1,3,1,choice,1,1,-2,-2.0,5,5,0,0
711,804,w1ad74ca,Red,,,0,1,2,choice,3,2,-3,-8.0,5,5,2,2
712,805,w1ad74ca,Yellow,1.0,1959.0,1,2,2,choice,1,1,9,8.0,5,5,1,1
713,806,w1ad74ca,Green,0.0,3039.0,1,3,2,choice,2,2,-3,5.0,5,5,2,2
714,807,w1ad74ca,Scene,0.0,2899.0,1,1,3,choice,3,3,-1,-13.0,6,6,3,3
715,808,w1ad74ca,Object,1.0,3277.0,1,2,3,choice,1,1,4,3.0,6,6,1,1
716,809,w1ad74ca,Animal,1.0,3205.0,1,3,3,choice,2,1,5,7.0,6,6,2,2
717,810,w1ad74ca,Scene,0.0,3682.0,1,1,4,choice,1,1,-5,-8.0,4,4,1,1
718,811,w1ad74ca,Food,0.0,3373.0,0,2,4,choice,2,2,6,7.0,4,4,1,1
719,812,w1ad74ca,Object,0.0,2671.0,0,3,4,choice,3,3,2,-1.0,4,4,2,2
720,813,w1ad74ca,Red,1.0,5116.0,1,1,5,choice,2,2,2,1.0,3,3,1,1
721,814,w1ad74ca,Blue,1.0,2669.0,1,2,5,choice,3,2,1,2.0,3,3,2,2
722,815,w1ad74ca,Green,1.0,3764.0,0,3,5,choice,1,0,-7,-3.0,3,3,0,0
723,816,wae959a9,Object,0.0,6970.0,1,1,1,choice,1,2,-9,2.0,2,2,0,0
724,817,wae959a9,Green,1.0,4665.0,1,2,1,choice,2,2,3,-9.0,2,2,0,1
725,818,wae959a9,Scene,1.0,2564.0,1,3,1,choice,3,2,3,10.0,2,2,1,1
726,819,wae959a9,Animal,1.0,2291.0,1,1,2,choice,2,1,6,13.0,2,2,1,1
727,820,wae959a9,Yellow,1.0,1164.0,1,2,2,choice,1,3,6,-1.0,2,2,0,0
728,821,wae959a9,Blue,0.0,821.0,1,3,2,choice,3,2,-4,3.0,2,2,1,1
729,822,wae959a9,Object,1.0,978.0,1,1,3,choice,3,1,6,11.0,1,1,1,1
730,823,wae959a9,Scene,0.0,932.0,0,2,3,choice,2,0,1,-1.0,1,1,0,0
731,824,wae959a9,Red,1.0,880.0,1,3,3,choice,1,4,8,9.0,1,1,1,1
732,825,wae959a9,Green,0.0,451.0,1,1,4,choice,3,2,-3,11.0,2,2,0,0
733,826,wae959a9,Blue,1.0,927.0,1,2,4,choice,1,1,2,7.0,2,2,1,1
734,827,wae959a9,Food,1.0,673.0,1,3,4,choice,2,3,5,3.0,2,2,0,0
735,828,wae959a9,Yellow,1.0,547.0,0,1,5,choice,1,1,-7,-7.0,2,2,1,1
736,829,wae959a9,Animal,0.0,441.0,1,2,5,choice,2,3,-8,1.0,2,2,0,0
737,830,wae959a9,Food,1.0,645.0,0,3,5,choice,3,2,-2,-4.0,2,2,1,1
